t_recv_ns,t_s,t_stamp_ns,frame_id,angular_velocity.x,angular_velocity.y,angular_velocity.z,linear_acceleration.x,linear_acceleration.y,linear_acceleration.z,quaternion.w,quaternion.x,quaternion.y,quaternion.z,rpy.x,rpy.y,rpy.z
3517898526080,0,0,,0.0072999269,0.0003090629,0.0012733399,9.6768303,-0.250626,1.0589581,0.73924798,-0.081511997,-0.66574901,-0.060373999,-0.38069175,-1.4625885,0.17939877
3517898765632,0.000239552,0,,0.0072999269,0.0003090629,0.0012733399,9.6768303,-0.250626,1.0589581,0.73924798,-0.081511997,-0.66574901,-0.060373999,-0.38069175,-1.4625885,0.17939877
3517900647808,0.002121728,0,,0.0072999269,0.0003090629,0.0012733399,9.6768303,-0.250626,1.0589581,0.73924798,-0.081511997,-0.66574901,-0.060373999,-0.38069175,-1.4625885,0.17939877
3517902699808,0.004173728,0,,0.0025078811,-0.0048273363,-0.00048059385,9.7019157,-0.41567001,0.94781202,0.73924702,-0.081496,-0.66575199,-0.060371,-0.38052551,-1.4625989,0.17926035
3517904736896,0.006210816,0,,0.0025078811,-0.0048273363,-0.00048059385,9.7019157,-0.41567001,0.94781202,0.73924702,-0.081496,-0.66575199,-0.060371,-0.38052551,-1.4625989,0.17926035
3517906951808,0.008425728,0,,-0.00015130259,-0.0032204465,0.0046881814,9.8642368,-0.44596401,0.98293197,0.739241,-0.081502996,-0.66575903,-0.060366001,-0.38071406,-1.4626111,0.17944639
3517908734080,0.010208,0,,-0.00015130259,-0.0032204465,0.0046881814,9.8642368,-0.44596401,0.98293197,0.739241,-0.081502996,-0.66575903,-0.060366001,-0.38071406,-1.4626111,0.17944639
3517910681920,0.01215584,0,,-0.00015130259,-0.0032204465,0.0046881814,9.8642368,-0.44596401,0.98293197,0.739241,-0.081502996,-0.66575903,-0.060366001,-0.38071406,-1.4626111,0.17944639
3517912622688,0.014096608,0,,0.0016263152,0.00080203112,0.002166739,9.9192762,-0.44578201,1.038322,0.73924202,-0.08151,-0.66575801,-0.060359001,-0.38088996,-1.4626027,0.17962213
3517914811872,0.016285792,0,,0.0016263152,0.00080203112,0.002166739,9.9192762,-0.44578201,1.038322,0.73924202,-0.08151,-0.66575801,-0.060359001,-0.38088996,-1.4626027,0.17962213
3517916613568,0.018087488,0,,0.00074682638,-0.0044964916,0.001013216,9.8818588,-0.463072,0.98243397,0.73924202,-0.081514001,-0.665757,-0.060353998,-0.38099056,-1.4625995,0.17972418
3517918618752,0.020092672,0,,0.00074682638,-0.0044964916,0.001013216,9.8818588,-0.463072,0.98243397,0.73924202,-0.081514001,-0.665757,-0.060353998,-0.38099056,-1.4625995,0.17972418
3517920612448,0.022086368,0,,0.00074682638,-0.0044964916,0.001013216,9.8818588,-0.463072,0.98243397,0.73924202,-0.081514001,-0.665757,-0.060353998,-0.38099056,-1.4625995,0.17972418
3517922614208,0.024088128,0,,0.0072308465,-0.0060150156,-0.0015423998,9.7317629,-0.409502,0.95972902,0.73923302,-0.081511997,-0.66576898,-0.060346998,-0.38112795,-1.4626255,0.17987389
3517924655296,0.026129216,0,,0.0072308465,-0.0060150156,-0.0015423998,9.7317629,-0.409502,0.95972902,0.73923302,-0.081511997,-0.66576898,-0.060346998,-0.38112795,-1.4626255,0.17987389
3517926678464,0.028152384,0,,0.0076678072,-0.0012686973,-0.0014422703,9.7030735,-0.26613,0.984321,0.739227,-0.081499003,-0.66577703,-0.060339998,-0.38108833,-1.4626454,0.17986394
3517928659168,0.030133088,0,,0.0076678072,-0.0012686973,-0.0014422703,9.7030735,-0.26613,0.984321,0.739227,-0.081499003,-0.66577703,-0.060339998,-0.38108833,-1.4626454,0.17986394
3517930651904,0.032125824,0,,0.0076678072,-0.0012686973,-0.0014422703,9.7030735,-0.26613,0.984321,0.739227,-0.081499003,-0.66577703,-0.060339998,-0.38108833,-1.4626454,0.17986394
3517932642624,0.034116544,0,,0.0052748738,-0.0014625684,-0.0024214699,9.7000351,-0.33950201,0.99443197,0.739227,-0.081478998,-0.66577899,-0.060338002,-0.38084768,-1.4626564,0.17965407
3517934842976,0.036316896,0,,0.0052748738,-0.0014625684,-0.0024214699,9.7000351,-0.33950201,0.99443197,0.739227,-0.081478998,-0.66577899,-0.060338002,-0.38084768,-1.4626564,0.17965407
3517936672608,0.038146528,0,,0.0068846605,-0.00093326248,0.0030378679,9.7109575,-0.39462799,0.96522301,0.739227,-0.081465997,-0.66578197,-0.060329001,-0.38079665,-1.4626603,0.17963376
3517938648960,0.04012288,0,,0.0068846605,-0.00093326248,0.0030378679,9.7109575,-0.39462799,0.96522301,0.739227,-0.081465997,-0.66578197,-0.060329001,-0.38079665,-1.4626603,0.17963376
3517940639360,0.04211328,0,,0.0068846605,-0.00093326248,0.0030378679,9.7109575,-0.39462799,0.96522301,0.739227,-0.081465997,-0.66578197,-0.060329001,-0.38079665,-1.4626603,0.17963376
3517942672064,0.044145984,0,,0.0033070848,-0.0011301705,-0.00039109337,9.7706137,-0.42176101,0.95680201,0.739227,-0.081459999,-0.66578299,-0.060320999,-0.38082082,-1.462662,0.17967873
3517944639296,0.046113216,0,,0.0033070848,-0.0011301705,-0.00039109337,9.7706137,-0.42176101,0.95680201,0.739227,-0.081459999,-0.66578299,-0.060320999,-0.38082082,-1.462662,0.17967873
3517946651264,0.048125184,0,,-0.0017650863,-0.0024608095,-0.0031053946,9.8482866,-0.398626,0.98579001,0.73922402,-0.081459001,-0.66578698,-0.060323,-0.38080967,-1.462674,0.1796667
3517948644896,0.050118816,0,,-0.0017650863,-0.0024608095,-0.0031053946,9.8482866,-0.398626,0.98579001,0.73922402,-0.081459001,-0.66578698,-0.060323,-0.38080967,-1.462674,0.1796667
3517950647168,0.052121088,0,,-0.0017650863,-0.0024608095,-0.0031053946,9.8482866,-0.398626,0.98579001,0.73922402,-0.081459001,-0.66578698,-0.060323,-0.38080967,-1.462674,0.1796667
3517952629856,0.054103776,0,,-0.00037744489,-0.0042255469,-0.00086158177,9.8804827,-0.45023301,0.98698997,0.739218,-0.081459001,-0.665793,-0.060329001,-0.38078357,-1.4626912,0.17963078
3517954851552,0.056325472,0,,-0.00037744489,-0.0042255469,-0.00086158177,9.8804827,-0.45023301,0.98698997,0.739218,-0.081459001,-0.665793,-0.060329001,-0.38078357,-1.4626912,0.17963078
3517956621888,0.058095808,0,,-0.0008901179,-0.0054944712,-0.0050268799,9.7975016,-0.38786599,0.99728101,0.739209,-0.081459001,-0.66580302,-0.060334001,-0.38079212,-1.4627187,0.17963183
3517958660288,0.060134208,0,,-0.0008901179,-0.0054944712,-0.0050268799,9.7975016,-0.38786599,0.99728101,0.739209,-0.081459001,-0.66580302,-0.060334001,-0.38079212,-1.4627187,0.17963183
3517960628288,0.062102208,0,,-0.0008901179,-0.0054944712,-0.0050268799,9.7975016,-0.38786599,0.99728101,0.739209,-0.081459001,-0.66580302,-0.060334001,-0.38079212,-1.4627187,0.17963183
3517962644832,0.064118752,0,,-0.001891326,-0.0009657256,-0.0037711854,9.6908846,-0.30517101,0.97818798,0.73920202,-0.081454001,-0.66580999,-0.060348999,-0.38059754,-1.4627454,0.17942449
3517964692512,0.066166432,0,,-0.001891326,-0.0009657256,-0.0037711854,9.6908846,-0.30517101,0.97818798,0.73920202,-0.081454001,-0.66580999,-0.060348999,-0.38059754,-1.4627454,0.17942449
3517966696384,0.068170304,0,,0.00010630801,0.00057487655,0.0046213699,9.7049761,-0.35595301,0.969917,0.73920298,-0.081455,-0.66580802,-0.060352001,-0.38056376,-1.4627436,0.17938432
3517968647136,0.070121056,0,,0.00010630801,0.00057487655,0.0046213699,9.7049761,-0.35595301,0.969917,0.73920298,-0.081455,-0.66580802,-0.060352001,-0.38056376,-1.4627436,0.17938432
3517970677056,0.072150976,0,,0.00010630801,0.00057487655,0.0046213699,9.7049761,-0.35595301,0.969917,0.73920298,-0.081455,-0.66580802,-0.060352001,-0.38056376,-1.4627436,0.17938432
3517972621120,0.07409504,0,,-0.00078977895,0.0011415849,0.0041128684,9.7484941,-0.375772,1.013904,0.73920399,-0.081464998,-0.665806,-0.060348,-0.38073333,-1.4627315,0.17954503
3517974811360,0.07628528,0,,-0.00078977895,0.0011415849,0.0041128684,9.7484941,-0.375772,1.013904,0.73920399,-0.081464998,-0.665806,-0.060348,-0.38073333,-1.4627315,0.17954503
3517976613568,0.078087488,0,,-0.00052436673,-0.001632738,0.0017737956,9.7748003,-0.455457,0.95956099,0.739209,-0.081469998,-0.66579998,-0.060346,-0.38078636,-1.4627143,0.17959466
3517978612256,0.080086176,0,,-0.00052436673,-0.001632738,0.0017737956,9.7748003,-0.455457,0.95956099,0.739209,-0.081469998,-0.66579998,-0.060346,-0.38078636,-1.4627143,0.17959466
3517980639488,0.082113408,0,,-0.00052436673,-0.001632738,0.0017737956,9.7748003,-0.455457,0.95956099,0.739209,-0.081469998,-0.66579998,-0.060346,-0.38078636,-1.4627143,0.17959466
3517982642816,0.084116736,0,,0.0027426627,-0.0021041689,-0.0036476683,9.825448,-0.43139899,1.004317,0.739205,-0.081470996,-0.66580397,-0.060346,-0.38083194,-1.4627259,0.17963917
3517984636352,0.086110272,0,,0.0027426627,-0.0021041689,-0.0036476683,9.825448,-0.43139899,1.004317,0.739205,-0.081470996,-0.66580397,-0.060346,-0.38083194,-1.4627259,0.17963917
3517986639072,0.088112992,0,,0.0047414311,-0.00031614895,0.00027546533,9.7697802,-0.444161,0.97195798,0.73920602,-0.081464,-0.66580397,-0.060343999,-0.38074505,-1.4627264,0.17956425
3517988633792,0.090107712,0,,0.0047414311,-0.00031614895,0.00027546533,9.7697802,-0.444161,0.97195798,0.73920602,-0.081464,-0.66580397,-0.060343999,-0.38074505,-1.4627264,0.17956425
3517990637216,0.092111136,0,,0.0047414311,-0.00031614895,0.00027546533,9.7697802,-0.444161,0.97195798,0.73920602,-0.081464,-0.66580397,-0.060343999,-0.38074505,-1.4627264,0.17956425
3517992634048,0.094107968,0,,0.0030281114,0.00038037707,-0.0037770321,9.7464418,-0.423693,0.97379202,0.73920697,-0.081455998,-0.66580397,-0.060341001,-0.38067541,-1.4627259,0.17951099
3517994828544,0.096302464,0,,0.0030281114,0.00038037707,-0.0037770321,9.7464418,-0.423693,0.97379202,0.73920697,-0.081455998,-0.66580397,-0.060341001,-0.38067541,-1.4627259,0.17951099
3517996629856,0.098103776,0,,0.0034277393,0.0050875474,-0.003481356,9.7940493,-0.32445899,1.043421,0.73921102,-0.081447996,-0.66579998,-0.060346,-0.38049019,-1.4627215,0.17932931
3517998637152,0.10011107,0,,0.0034277393,0.0050875474,-0.003481356,9.7940493,-0.32445899,1.043421,0.73921102,-0.081447996,-0.66579998,-0.060346,-0.38049019,-1.4627215,0.17932931
3518000630048,0.10210397,0,,0.0034277393,0.0050875474,-0.003481356,9.7940493,-0.32445899,1.043421,0.73921102,-0.081447996,-0.66579998,-0.060346,-0.38049019,-1.4627215,0.17932931
3518002676480,0.1041504,0,,0.0050119745,0.0050740912,-0.0020364501,9.7085609,-0.31617799,0.97747898,0.739223,-0.081428997,-0.66578901,-0.060350001,-0.3800986,-1.4626985,0.1789598
3518004656864,0.10613078,0,,0.0050119745,0.0050740912,-0.0020364501,9.7085609,-0.31617799,0.97747898,0.739223,-0.081428997,-0.66578901,-0.060350001,-0.3800986,-1.4626985,0.1789598
3518006687296,0.10816122,0,,-0.00040811035,-0.00091736251,0.0019336503,9.748971,-0.41905499,0.97721601,0.739227,-0.081422001,-0.66578501,-0.060352001,-0.37995849,-1.4626929,0.17882586
3518008651040,0.11012496,0,,-0.00040811035,-0.00091736251,0.0019336503,9.748971,-0.41905499,0.97721601,0.739227,-0.081422001,-0.66578501,-0.060352001,-0.37995849,-1.4626929,0.17882586
3518010629824,0.11210374,0,,-0.00040811035,-0.00091736251,0.0019336503,9.748971,-0.41905499,0.97721601,0.739227,-0.081422001,-0.66578501,-0.060352001,-0.37995849,-1.4626929,0.17882586
3518012620832,0.11409475,0,,-0.0008305324,-0.0051645341,0.0031575972,9.825676,-0.44364899,0.99089098,0.739223,-0.081431001,-0.66578901,-0.060348999,-0.3801465,-1.4626994,0.17900635
3518014816352,0.11629027,0,,-0.0008305324,-0.0051645341,0.0031575972,9.825676,-0.44364899,0.99089098,0.739223,-0.081431001,-0.66578901,-0.060348999,-0.3801465,-1.4626994,0.17900635
3518016620992,0.11809491,0,,-0.0046463282,-0.0094996173,-0.003283488,9.8235388,-0.42354399,1.00642,0.73921102,-0.081439003,-0.66580099,-0.060352001,-0.38030623,-1.4627288,0.17914973
3518018621952,0.12009587,0,,-0.0046463282,-0.0094996173,-0.003283488,9.8235388,-0.42354399,1.00642,0.73921102,-0.081439003,-0.66580099,-0.060352001,-0.38030623,-1.4627288,0.17914973
3518020614240,0.12208816,0,,-0.0046463282,-0.0094996173,-0.003283488,9.8235388,-0.42354399,1.00642,0.73921102,-0.081439003,-0.66580099,-0.060352001,-0.38030623,-1.4627288,0.17914973
3518022633248,0.12410717,0,,-0.0078829365,-0.0057121487,-0.0031406851,9.7725592,-0.42270198,0.97682703,0.73919702,-0.08145,-0.66581398,-0.060366999,-0.3803514,-1.4627652,0.17915835
3518024611840,0.12608576,0,,-0.0078829365,-0.0057121487,-0.0031406851,9.7725592,-0.42270198,0.97682703,0.73919702,-0.08145,-0.66581398,-0.060366999,-0.3803514,-1.4627652,0.17915835
3518026614400,0.12808832,0,,-0.0023848527,-0.0025775197,-0.0044439748,9.7320585,-0.38310501,0.957923,0.73918897,-0.081455998,-0.66582102,-0.060384002,-0.38028972,-1.4627924,0.17906398
3518028608288,0.13008221,0,,-0.0023848527,-0.0025775197,-0.0044439748,9.7320585,-0.38310501,0.957923,0.73918897,-0.081455998,-0.66582102,-0.060384002,-0.38028972,-1.4627924,0.17906398
3518030614816,0.13208874,0,,-0.0023848527,-0.0025775197,-0.0044439748,9.7320585,-0.38310501,0.957923,0.73918897,-0.081455998,-0.66582102,-0.060384002,-0.38028972,-1.4627924,0.17906398
3518032606432,0.13408035,0,,0.00037034142,0.001796066,-0.0019452742,9.7161989,-0.36939201,0.95920199,0.73918802,-0.081450999,-0.66582102,-0.060394,-0.38011811,-1.4627994,0.17888555
3518034802240,0.13627616,0,,0.00037034142,0.001796066,-0.0019452742,9.7161989,-0.36939201,0.95920199,0.73918802,-0.081450999,-0.66582102,-0.060394,-0.38011811,-1.4627994,0.17888555
3518036711744,0.13818566,0,,-0.0016874367,-0.0008557524,-0.0010209478,9.8104105,-0.37956899,0.98456001,0.73918802,-0.081450999,-0.66582102,-0.060401,-0.38003309,-1.4628022,0.1787904
3518038661632,0.14013555,0,,-0.0016874367,-0.0008557524,-0.0010209478,9.8104105,-0.37956899,0.98456001,0.73918802,-0.081450999,-0.66582102,-0.060401,-0.38003309,-1.4628022,0.1787904
3518040622976,0.1420969,0,,-0.0016874367,-0.0008557524,-0.0010209478,9.8104105,-0.37956899,0.98456001,0.73918802,-0.081450999,-0.66582102,-0.060401,-0.38003309,-1.4628022,0.1787904
3518042616704,0.14409062,0,,0.00083622218,-0.003468772,-0.0026364944,9.7707195,-0.30514401,0.99681097,0.73918301,-0.081447996,-0.66582501,-0.060407002,-0.379951,-1.4628173,0.17870364
3518044637600,0.14611152,0,,0.00083622218,-0.003468772,-0.0026364944,9.7707195,-0.30514401,0.99681097,0.73918301,-0.081447996,-0.66582501,-0.060407002,-0.379951,-1.4628173,0.17870364
3518046673408,0.14814733,0,,4.7542769e-05,-0.0012518549,-0.0022107561,9.7969332,-0.40259099,0.98301297,0.73917997,-0.081441998,-0.665829,-0.060414001,-0.37982316,-1.4628315,0.1785748
3518048633152,0.15010707,0,,4.7542769e-05,-0.0012518549,-0.0022107561,9.7969332,-0.40259099,0.98301297,0.73917997,-0.081441998,-0.665829,-0.060414001,-0.37982316,-1.4628315,0.1785748
3518050640416,0.15211434,0,,4.7542769e-05,-0.0012518549,-0.0022107561,9.7969332,-0.40259099,0.98301297,0.73917997,-0.081441998,-0.665829,-0.060414001,-0.37982316,-1.4628315,0.1785748
3518052628672,0.15410259,0,,0.0043259905,-0.00097207857,-0.00090415034,9.826087,-0.43465599,0.95824099,0.73917997,-0.081439003,-0.66583002,-0.060414001,-0.37977346,-1.4628354,0.1785293
3518054855232,0.15632915,0,,0.0043259905,-0.00097207857,-0.00090415034,9.826087,-0.43465599,0.95824099,0.73917997,-0.081439003,-0.66583002,-0.060414001,-0.37977346,-1.4628354,0.1785293
3518056624192,0.15809811,0,,0.0057376302,0.0017600773,-0.0013665404,9.7531481,-0.359364,1.0195169,0.73918098,-0.081428997,-0.66583002,-0.060410999,-0.37967952,-1.4628339,0.17845373
3518058629920,0.16010384,0,,0.0057376302,0.0017600773,-0.0013665404,9.7531481,-0.359364,1.0195169,0.73918098,-0.081428997,-0.66583002,-0.060410999,-0.37967952,-1.4628339,0.17845373
3518060624480,0.1620984,0,,0.0057376302,0.0017600773,-0.0013665404,9.7531481,-0.359364,1.0195169,0.73918098,-0.081428997,-0.66583002,-0.060410999,-0.37967952,-1.4628339,0.17845373
3518062625472,0.16409939,0,,1.6388642e-05,0.0032233263,-0.00091671674,9.6556425,-0.35214299,0.95381397,0.73918599,-0.081421003,-0.66582602,-0.060410999,-0.37953904,-1.462827,0.17832438
3518064619680,0.1660936,0,,1.6388642e-05,0.0032233263,-0.00091671674,9.6556425,-0.35214299,0.95381397,0.73918599,-0.081421003,-0.66582602,-0.060410999,-0.37953904,-1.462827,0.17832438
3518066629536,0.16810346,0,,-1.134464e-05,0.0075792145,0.0030230324,9.7703695,-0.44407001,0.95086801,0.73919499,-0.081422001,-0.665815,-0.060412999,-0.37945322,-1.4628002,0.1782339
3518068634240,0.17010816,0,,-1.134464e-05,0.0075792145,0.0030230324,9.7703695,-0.44407001,0.95086801,0.73919499,-0.081422001,-0.665815,-0.060412999,-0.37945322,-1.4628002,0.1782339
3518070719168,0.17219309,0,,-1.134464e-05,0.0075792145,0.0030230324,9.7703695,-0.44407001,0.95086801,0.73919499,-0.081422001,-0.665815,-0.060412999,-0.37945322,-1.4628002,0.1782339
3518072619456,0.17409338,0,,0.0024362702,0.0053144227,-0.001873384,9.7427721,-0.32442299,1.026596,0.73920602,-0.081424996,-0.665802,-0.060412001,-0.37941637,-1.4627652,0.17819391
3518074811904,0.17628582,0,,0.0024362702,0.0053144227,-0.001873384,9.7427721,-0.32442299,1.026596,0.73920602,-0.081424996,-0.665802,-0.060412001,-0.37941637,-1.4627652,0.17819391
3518076622528,0.17809645,0,,0.0022313511,-0.0021402274,-0.0039683202,9.6788406,-0.38171899,1.000525,0.73921198,-0.081409998,-0.66579801,-0.060419001,-0.37909742,-1.4627596,0.17788826
3518078619296,0.18009322,0,,0.0022313511,-0.0021402274,-0.0039683202,9.6788406,-0.38171899,1.000525,0.73921198,-0.081409998,-0.66579801,-0.060419001,-0.37909742,-1.4627596,0.17788826
3518080610240,0.18208416,0,,0.0022313511,-0.0021402274,-0.0039683202,9.6788406,-0.38171899,1.000525,0.73921198,-0.081409998,-0.66579801,-0.060419001,-0.37909742,-1.4627596,0.17788826
3518082612128,0.18408605,0,,-0.0018722147,-0.0027155403,0.0029317692,9.7294102,-0.35404101,0.96791297,0.73920798,-0.081410997,-0.665802,-0.060419999,-0.3791354,-1.4627713,0.17792296
3518084608576,0.1860825,0,,-0.0018722147,-0.0027155403,0.0029317692,9.7294102,-0.35404101,0.96791297,0.73920798,-0.081410997,-0.665802,-0.060419999,-0.3791354,-1.4627713,0.17792296
3518086683232,0.18815715,0,,8.5416414e-05,-0.00048020988,0.0028370502,9.7658615,-0.387054,0.98669797,0.739205,-0.081417002,-0.66580397,-0.060421001,-0.37921576,-1.4627762,0.1779926
3518088611904,0.19008582,0,,8.5416414e-05,-0.00048020988,0.0028370502,9.7658615,-0.387054,0.98669797,0.739205,-0.081417002,-0.66580397,-0.060421001,-0.37921576,-1.4627762,0.1779926
3518090626592,0.19210051,0,,8.5416414e-05,-0.00048020988,0.0028370502,9.7658615,-0.387054,0.98669797,0.739205,-0.081417002,-0.66580397,-0.060421001,-0.37921576,-1.4627762,0.1779926
3518092604064,0.19407798,0,,0.0024889792,-0.001430978,0.0044060663,9.777544,-0.424095,0.99685103,0.73920602,-0.081422001,-0.66580302,-0.060412999,-0.37937429,-1.4627684,0.17815537
3518094844896,0.19631882,0,,0.0024889792,-0.001430978,0.0044060663,9.777544,-0.424095,0.99685103,0.73920602,-0.081422001,-0.66580302,-0.060412999,-0.37937429,-1.4627684,0.17815537
3518096604768,0.19807869,0,,0.0017645802,-0.0012293051,0.002222764,9.8320255,-0.43187699,0.99509698,0.73920602,-0.081423998,-0.66580397,-0.060400002,-0.37955751,-1.4627657,0.17835363
3518098605696,0.20007962,0,,0.0017645802,-0.0012293051,0.002222764,9.8320255,-0.43187699,0.99509698,0.73920602,-0.081423998,-0.66580397,-0.060400002,-0.37955751,-1.4627657,0.17835363
3518100687808,0.20216173,0,,0.0017645802,-0.0012293051,0.002222764,9.8320255,-0.43187699,0.99509698,0.73920602,-0.081423998,-0.66580397,-0.060400002,-0.37955751,-1.4627657,0.17835363
3518102682048,0.20415597,0,,-0.0014979637,-0.0011290185,0.0012502142,9.9617262,-0.53792602,0.97456598,0.739205,-0.081427999,-0.66580498,-0.060400002,-0.37961737,-1.4627647,0.17840804
3518104647648,0.20612157,0,,-0.0014979637,-0.0011290185,0.0012502142,9.9617262,-0.53792602,0.97456598,0.739205,-0.081427999,-0.66580498,-0.060400002,-0.37961737,-1.4627647,0.17840804
3518106643776,0.2081177,0,,-0.0046654047,-0.0062175262,-0.0024584358,9.928236,-0.47236601,0.98426801,0.73919898,-0.081441,-0.66580999,-0.060400002,-0.37982489,-1.4627745,0.17859814
3518108642720,0.21011664,0,,-0.0046654047,-0.0062175262,-0.0024584358,9.928236,-0.47236601,0.98426801,0.73919898,-0.081441,-0.66580999,-0.060400002,-0.37982489,-1.4627745,0.17859814
3518110637824,0.21211174,0,,-0.0046654047,-0.0062175262,-0.0024584358,9.928236,-0.47236601,0.98426801,0.73919898,-0.081441,-0.66580999,-0.060400002,-0.37982489,-1.4627745,0.17859814
3518112624160,0.21409808,0,,-0.0065148951,-0.0027460137,-0.0053116654,9.7614079,-0.32738501,1.042321,0.73918802,-0.081453003,-0.66581899,-0.060417999,-0.37984613,-1.4628061,0.17857652
3518114819232,0.21629315,0,,-0.0065148951,-0.0027460137,-0.0053116654,9.7614079,-0.32738501,1.042321,0.73918802,-0.081453003,-0.66581899,-0.060417999,-0.37984613,-1.4628061,0.17857652
3518116620192,0.21809411,0,,-0.0015846717,-0.00023146556,-0.0048045772,9.642087,-0.354819,0.96064103,0.73918599,-0.081447996,-0.66582,-0.060435001,-0.37958568,-1.4628173,0.17830003
3518118623328,0.22009725,0,,-0.0015846717,-0.00023146556,-0.0048045772,9.642087,-0.354819,0.96064103,0.73918599,-0.081447996,-0.66582,-0.060435001,-0.37958568,-1.4628173,0.17830003
3518120618688,0.22209261,0,,-0.0015846717,-0.00023146556,-0.0048045772,9.642087,-0.354819,0.96064103,0.73918599,-0.081447996,-0.66582,-0.060435001,-0.37958568,-1.4628173,0.17830003
3518122620416,0.22409434,0,,-0.0032566273,-0.0016773487,-0.001585457,9.6179028,-0.274014,0.955176,0.73918402,-0.081445999,-0.66582102,-0.060451001,-0.37937688,-1.4628295,0.1780709
3518124614560,0.22608848,0,,-0.0032566273,-0.0016773487,-0.001585457,9.6179028,-0.274014,0.955176,0.73918402,-0.081445999,-0.66582102,-0.060451001,-0.37937688,-1.4628295,0.1780709
3518126651744,0.22812566,0,,-0.0024923999,-0.0071166151,0.0052483623,9.5646496,-0.29218999,0.97985798,0.73917502,-0.081451997,-0.66583002,-0.060456999,-0.37946071,-1.4628544,0.17813721
3518128615200,0.23008912,0,,-0.0024923999,-0.0071166151,0.0052483623,9.5646496,-0.29218999,0.97985798,0.73917502,-0.081451997,-0.66583002,-0.060456999,-0.37946071,-1.4628544,0.17813721
3518130620896,0.23209482,0,,-0.0024923999,-0.0071166151,0.0052483623,9.5646496,-0.29218999,0.97985798,0.73917502,-0.081451997,-0.66583002,-0.060456999,-0.37946071,-1.4628544,0.17813721
3518132636480,0.2341104,0,,-0.0024923999,-0.0071166151,0.0052483623,9.5646496,-0.29218999,0.97985798,0.73917502,-0.081451997,-0.66583002,-0.060456999,-0.37946071,-1.4628544,0.17813721
3518134836352,0.23631027,0,,-0.0024923999,-0.0071166151,0.0052483623,9.5646496,-0.29218999,0.97985798,0.73917502,-0.081451997,-0.66583002,-0.060456999,-0.37946071,-1.4628544,0.17813721
3518136708640,0.23818256,0,,-0.0066488142,-0.004082936,0.0026619239,9.8357592,-0.463983,0.95774597,0.73916399,-0.081470996,-0.66583997,-0.060451999,-0.37985359,-1.462872,0.17851044
3518138615328,0.24008925,0,,-0.0066488142,-0.004082936,0.0026619239,9.8357592,-0.463983,0.95774597,0.73916399,-0.081470996,-0.66583997,-0.060451999,-0.37985359,-1.462872,0.17851044
3518140606816,0.24208074,0,,-0.0066488142,-0.004082936,0.0026619239,9.8357592,-0.463983,0.95774597,0.73916399,-0.081470996,-0.66583997,-0.060451999,-0.37985359,-1.462872,0.17851044
3518142612736,0.24408666,0,,-0.0079216481,-0.0031968323,-0.00022985987,9.9346275,-0.40529498,0.97771597,0.73915499,-0.081493996,-0.665847,-0.060460001,-0.38011009,-1.4628881,0.17872303
3518144606912,0.24608083,0,,-0.0079216481,-0.0031968323,-0.00022985987,9.9346275,-0.40529498,0.97771597,0.73915499,-0.081493996,-0.665847,-0.060460001,-0.38011009,-1.4628881,0.17872303
3518146607872,0.24808179,0,,0.00090435983,-0.00071921526,-0.0032428043,9.8260145,-0.346582,0.98350298,0.739151,-0.081496999,-0.66584998,-0.060470998,-0.38004717,-1.4629008,0.1786394
3518148602112,0.25007603,0,,0.00090435983,-0.00071921526,-0.0032428043,9.8260145,-0.346582,0.98350298,0.739151,-0.081496999,-0.66584998,-0.060470998,-0.38004717,-1.4629008,0.1786394
3518150623744,0.25209766,0,,0.00090435983,-0.00071921526,-0.0032428043,9.8260145,-0.346582,0.98350298,0.739151,-0.081496999,-0.66584998,-0.060470998,-0.38004717,-1.4629008,0.1786394
3518152601216,0.25407514,0,,0.0035460726,-0.0036174916,-0.0011457388,9.7506151,-0.34454399,0.98314899,0.73914701,-0.081487,-0.665856,-0.060472999,-0.37992726,-1.462919,0.17853216
3518154841408,0.25631533,0,,0.0035460726,-0.0036174916,-0.0011457388,9.7506151,-0.34454399,0.98314899,0.73914701,-0.081487,-0.665856,-0.060472999,-0.37992726,-1.462919,0.17853216
3518156598496,0.25807242,0,,0.0043387315,0.00040221112,0.001811006,9.7273588,-0.28198701,1.006428,0.73914599,-0.081476003,-0.66585797,-0.06047,-0.37982693,-1.4629269,0.17845117
3518158631232,0.26010515,0,,0.0043387315,0.00040221112,0.001811006,9.7273588,-0.28198701,1.006428,0.73914599,-0.081476003,-0.66585797,-0.06047,-0.37982693,-1.4629269,0.17845117
3518160627712,0.26210163,0,,0.0043387315,0.00040221112,0.001811006,9.7273588,-0.28198701,1.006428,0.73914599,-0.081476003,-0.66585797,-0.06047,-0.37982693,-1.4629269,0.17845117
3518162629984,0.2641039,0,,-4.2795474e-05,-0.0045515394,0.010135057,9.7022619,-0.296233,0.99502701,0.73914599,-0.081477001,-0.66585898,-0.060463,-0.37992506,-1.4629246,0.17855859
3518164637248,0.26611117,0,,-4.2795474e-05,-0.0045515394,0.010135057,9.7022619,-0.296233,0.99502701,0.73914599,-0.081477001,-0.66585898,-0.060463,-0.37992506,-1.4629246,0.17855859
3518166696704,0.26817062,0,,-0.0053947254,-0.004542132,0.0080996019,9.6913414,-0.470981,0.98838598,0.73913997,-0.081495002,-0.66586399,-0.060453001,-0.38032747,-1.4629277,0.17894901
3518168672160,0.27014608,0,,-0.0053947254,-0.004542132,0.0080996019,9.6913414,-0.470981,0.98838598,0.73913997,-0.081495002,-0.66586399,-0.060453001,-0.38032747,-1.4629277,0.17894901
3518170687424,0.27216134,0,,-0.0053947254,-0.004542132,0.0080996019,9.6913414,-0.470981,0.98838598,0.73913997,-0.081495002,-0.66586399,-0.060453001,-0.38032747,-1.4629277,0.17894901
3518172624608,0.27409853,0,,-0.006084689,0.0011321253,0.0031543684,9.8032331,-0.52348,0.99485499,0.73913699,-0.081520997,-0.66586399,-0.060451999,-0.38069262,-1.4629213,0.17927896
3518174787104,0.27626102,0,,-0.006084689,0.0011321253,0.0031543684,9.8032331,-0.52348,0.99485499,0.73913699,-0.081520997,-0.66586399,-0.060451999,-0.38069262,-1.4629213,0.17927896
3518176622400,0.27809632,0,,-0.0015526275,0.0013226629,0.00089921108,9.8182049,-0.51890397,0.99933499,0.73914099,-0.081537001,-0.66585797,-0.060451001,-0.38088613,-1.4629018,0.17944979
3518178622848,0.28009677,0,,-0.0015526275,0.0013226629,0.00089921108,9.8182049,-0.51890397,0.99933499,0.73914099,-0.081537001,-0.66585797,-0.060451001,-0.38088613,-1.4629018,0.17944979
3518180615360,0.28208928,0,,-0.0015526275,0.0013226629,0.00089921108,9.8182049,-0.51890397,0.99933499,0.73914099,-0.081537001,-0.66585797,-0.060451001,-0.38088613,-1.4629018,0.17944979
3518182614464,0.28408838,0,,-0.0017490992,-0.00019114845,-0.0018356325,9.7353458,-0.44007099,1.010693,0.73914301,-0.081543997,-0.66585499,-0.060451999,-0.38094076,-1.4628918,0.17949298
3518184611200,0.28608512,0,,-0.0017490992,-0.00019114845,-0.0018356325,9.7353458,-0.44007099,1.010693,0.73914301,-0.081543997,-0.66585499,-0.060451999,-0.38094076,-1.4628918,0.17949298
3518186614432,0.28808835,0,,0.00060627499,-0.0047405937,-0.0048894524,9.7050028,-0.40250301,1.0009969,0.73913997,-0.081541002,-0.66585797,-0.060458001,-0.38086326,-1.4629035,0.17941187
3518188609920,0.29008384,0,,0.00060627499,-0.0047405937,-0.0048894524,9.7050028,-0.40250301,1.0009969,0.73913997,-0.081541002,-0.66585797,-0.060458001,-0.38086326,-1.4629035,0.17941187
3518190610592,0.29208451,0,,0.00060627499,-0.0047405937,-0.0048894524,9.7050028,-0.40250301,1.0009969,0.73913997,-0.081541002,-0.66585797,-0.060458001,-0.38086326,-1.4629035,0.17941187
3518192626592,0.29410051,0,,0.0043719623,-0.0029212622,0.0020675519,9.8371239,-0.40696698,1.006009,0.73913503,-0.081533998,-0.66586399,-0.060458001,-0.38080158,-1.4629229,0.17935952
3518194806496,0.29628042,0,,0.0043719623,-0.0029212622,0.0020675519,9.8371239,-0.40696698,1.006009,0.73913503,-0.081533998,-0.66586399,-0.060458001,-0.38080158,-1.4629229,0.17935952
3518196605824,0.29807974,0,,0.0073054597,-0.0037307459,0.0063521781,9.8505898,-0.30164501,1.032838,0.739133,-0.081534997,-0.66586697,-0.060442001,-0.38102398,-1.4629207,0.17960378
3518198604096,0.30007802,0,,0.0073054597,-0.0037307459,0.0063521781,9.8505898,-0.30164501,1.032838,0.739133,-0.081534997,-0.66586697,-0.060442001,-0.38102398,-1.4629207,0.17960378
3518200648832,0.30212275,0,,0.0073054597,-0.0037307459,0.0063521781,9.8505898,-0.30164501,1.032838,0.739133,-0.081534997,-0.66586697,-0.060442001,-0.38102398,-1.4629207,0.17960378
3518202636512,0.30411043,0,,0.0024584184,-0.00097305599,0.0041454885,9.7737417,-0.33125201,0.99401999,0.73913401,-0.081529997,-0.66586798,-0.060430001,-0.38110191,-1.4629213,0.17970547
3518204631968,0.30610589,0,,0.0024584184,-0.00097305599,0.0041454885,9.7737417,-0.33125201,0.99401999,0.73913401,-0.081529997,-0.66586798,-0.060430001,-0.38110191,-1.4629213,0.17970547
3518206618464,0.30809238,0,,-0.00042058944,-0.0004395088,0.0039994568,9.7876034,-0.488644,0.959436,0.73913503,-0.081534997,-0.66586697,-0.060424998,-0.38121247,-1.4629114,0.17981755
3518208626976,0.3101009,0,,-0.00042058944,-0.0004395088,0.0039994568,9.7876034,-0.488644,0.959436,0.73913503,-0.081534997,-0.66586697,-0.060424998,-0.38121247,-1.4629114,0.17981755
3518210642272,0.31211619,0,,-0.00042058944,-0.0004395088,0.0039994568,9.7876034,-0.488644,0.959436,0.73913503,-0.081534997,-0.66586697,-0.060424998,-0.38121247,-1.4629114,0.17981755
3518212630240,0.31410416,0,,-0.0004476595,0.0014476983,0.0050760631,9.7576027,-0.36209899,1.004784,0.73913699,-0.081546001,-0.66586399,-0.060412999,-0.38149649,-1.4628992,0.18010158
3518214831584,0.3163055,0,,-0.0004476595,0.0014476983,0.0050760631,9.7576027,-0.36209899,1.004784,0.73913699,-0.081546001,-0.66586399,-0.060412999,-0.38149649,-1.4628992,0.18010158
3518216660736,0.31813466,0,,-0.0023624429,0.00093780032,0.0023901762,9.5894308,-0.31836,0.99105698,0.739142,-0.081554003,-0.66585797,-0.060412001,-0.38157453,-1.4628792,0.1801701
3518218664896,0.32013882,0,,-0.0023624429,0.00093780032,0.0023901762,9.5894308,-0.31836,0.99105698,0.739142,-0.081554003,-0.66585797,-0.060412001,-0.38157453,-1.4628792,0.1801701
3518220655264,0.32212918,0,,-0.0023624429,0.00093780032,0.0023901762,9.5894308,-0.31836,0.99105698,0.739142,-0.081554003,-0.66585797,-0.060412001,-0.38157453,-1.4628792,0.1801701
3518222627584,0.3241015,0,,-0.0047159668,-0.0043527639,0.00084014917,9.5528288,-0.40189999,0.948488,0.73913997,-0.081561998,-0.66585898,-0.060419999,-0.3815963,-1.4628813,0.18016886
3518224621088,0.32609501,0,,-0.0047159668,-0.0043527639,0.00084014917,9.5528288,-0.40189999,0.948488,0.73913997,-0.081561998,-0.66585898,-0.060419999,-0.3815963,-1.4628813,0.18016886
3518226623968,0.32809789,0,,-0.0045750491,-0.0080437166,0.003652625,9.6921988,-0.384866,0.94342202,0.73912901,-0.081574999,-0.665869,-0.060423002,-0.38180239,-1.4629073,0.18035296
3518228619712,0.33009363,0,,-0.0045750491,-0.0080437166,0.003652625,9.6921988,-0.384866,0.94342202,0.73912901,-0.081574999,-0.665869,-0.060423002,-0.38180239,-1.4629073,0.18035296
3518230638528,0.33211245,0,,-0.0045750491,-0.0080437166,0.003652625,9.6921988,-0.384866,0.94342202,0.73912901,-0.081574999,-0.665869,-0.060423002,-0.38180239,-1.4629073,0.18035296
3518232646880,0.3341208,0,,-0.0011498055,-0.0039388415,0.0028633697,9.7488289,-0.290782,1.015729,0.73911899,-0.081589997,-0.665878,-0.060422,-0.38208119,-1.4629269,0.18061094
3518234817760,0.33629168,0,,-0.0011498055,-0.0039388415,0.0028633697,9.7488289,-0.290782,1.015729,0.73911899,-0.081589997,-0.665878,-0.060422,-0.38208119,-1.4629269,0.18061094
3518236684064,0.33815798,0,,0.0037782188,0.0025705208,0.0047945243,9.8125172,-0.32826599,1.003526,0.73911899,-0.081588,-0.66587901,-0.060415,-0.38214631,-1.4629251,0.18068914
3518238653824,0.34012774,0,,0.0037782188,0.0025705208,0.0047945243,9.8125172,-0.32826599,1.003526,0.73911899,-0.081588,-0.66587901,-0.060415,-0.38214631,-1.4629251,0.18068914
3518240640832,0.34211475,0,,0.0037782188,0.0025705208,0.0047945243,9.8125172,-0.32826599,1.003526,0.73911899,-0.081588,-0.66587901,-0.060415,-0.38214631,-1.4629251,0.18068914
3518242641568,0.34411549,0,,-0.0063123149,-5.3494343e-05,0.0039047902,9.9769669,-0.51251602,0.93857402,0.739124,-0.081596002,-0.66587198,-0.060415998,-0.38220663,-1.4629079,0.18073653
3518244625312,0.34609923,0,,-0.0063123149,-5.3494343e-05,0.0039047902,9.9769669,-0.51251602,0.93857402,0.739124,-0.081596002,-0.66587198,-0.060415998,-0.38220663,-1.4629079,0.18073653
3518246639840,0.34811376,0,,-0.0068393171,-0.0033995348,0.0034467809,10.019401,-0.45892301,0.99647599,0.73911899,-0.081623003,-0.66587502,-0.060419001,-0.38254841,-1.4629097,0.18103568
3518248622528,0.35009645,0,,-0.0068393171,-0.0033995348,0.0034467809,10.019401,-0.45892301,0.99647599,0.73911899,-0.081623003,-0.66587502,-0.060419001,-0.38254841,-1.4629097,0.18103568
3518250622816,0.35209674,0,,-0.0068393171,-0.0033995348,0.0034467809,10.019401,-0.45892301,0.99647599,0.73911899,-0.081623003,-0.66587502,-0.060419001,-0.38254841,-1.4629097,0.18103568
3518252614080,0.354088,0,,-0.0076359549,-0.00059301049,0.00019703021,9.9132147,-0.359225,1.028085,0.739115,-0.081642002,-0.66587597,-0.060426001,-0.38273846,-1.4629107,0.18118755
3518254808960,0.35628288,0,,-0.0076359549,-0.00059301049,0.00019703021,9.9132147,-0.359225,1.028085,0.739115,-0.081642002,-0.66587597,-0.060426001,-0.38273846,-1.4629107,0.18118755
3518256610912,0.35808483,0,,-0.0047994985,-0.0031817875,0.0022547211,9.8591204,-0.54656398,0.960666,0.73911297,-0.081656002,-0.66587502,-0.060438998,-0.38277624,-1.4629107,0.18118853
3518258612992,0.36008691,0,,-0.0047994985,-0.0031817875,0.0022547211,9.8591204,-0.54656398,0.960666,0.73911297,-0.081656002,-0.66587502,-0.060438998,-0.38277624,-1.4629107,0.18118853
3518260608864,0.36208278,0,,-0.0047994985,-0.0031817875,0.0022547211,9.8591204,-0.54656398,0.960666,0.73911297,-0.081656002,-0.66587502,-0.060438998,-0.38277624,-1.4629107,0.18118853
3518262660416,0.36413434,0,,0.0045241203,-0.00093034776,0.00036243506,9.7207241,-0.39612001,1.005904,0.73910999,-0.081665002,-0.66587698,-0.060433999,-0.38297378,-1.4629129,0.18137908
3518264626016,0.36609994,0,,0.0045241203,-0.00093034776,0.00036243506,9.7207241,-0.39612001,1.005904,0.73910999,-0.081665002,-0.66587698,-0.060433999,-0.38297378,-1.4629129,0.18137908
3518266605152,0.36807907,0,,0.0033228277,-0.0026887321,0.00022703243,9.5049753,-0.25635299,1.023087,0.73910999,-0.081657,-0.66587901,-0.060428001,-0.38294592,-1.4629163,0.18137142
3518268652608,0.37012653,0,,0.0033228277,-0.0026887321,0.00022703243,9.5049753,-0.25635299,1.023087,0.73910999,-0.081657,-0.66587901,-0.060428001,-0.38294592,-1.4629163,0.18137142
3518270682688,0.37215661,0,,0.0033228277,-0.0026887321,0.00022703243,9.5049753,-0.25635299,1.023087,0.73910999,-0.081657,-0.66587901,-0.060428001,-0.38294592,-1.4629163,0.18137142
3518272630208,0.37410413,0,,-0.0030939976,0.00056103611,0.0032786358,9.5236568,-0.41488799,0.99031699,0.73911101,-0.081653997,-0.66587901,-0.060433,-0.38284778,-1.4629178,0.18127044
3518274688128,0.37616205,0,,-0.0030939976,0.00056103611,0.0032786358,9.5236568,-0.41488799,0.99031699,0.73911101,-0.081653997,-0.66587901,-0.060433,-0.38284778,-1.4629178,0.18127044
3518276632160,0.37810608,0,,0.00054689892,0.00016290903,0.0077003404,9.5906687,-0.44731998,0.98999399,0.739115,-0.081667997,-0.66587299,-0.060426001,-0.38307731,-1.4628953,0.18149102
3518278626784,0.3801007,0,,0.00054689892,0.00016290903,0.0077003404,9.5906687,-0.44731998,0.98999399,0.739115,-0.081667997,-0.66587299,-0.060426001,-0.38307731,-1.4628953,0.18149102
3518280620576,0.3820945,0,,0.00054689892,0.00016290903,0.0077003404,9.5906687,-0.44731998,0.98999399,0.739115,-0.081667997,-0.66587299,-0.060426001,-0.38307731,-1.4628953,0.18149102
3518282621824,0.38409574,0,,-0.0010712831,-0.0059751868,0.0069350306,9.6836081,-0.32551801,1.022854,0.73911399,-0.081684001,-0.665874,-0.06041,-0.38347785,-1.4628881,0.18189081
3518284616256,0.38609018,0,,-0.0010712831,-0.0059751868,0.0069350306,9.6836081,-0.32551801,1.022854,0.73911399,-0.081684001,-0.665874,-0.06041,-0.38347785,-1.4628881,0.18189081
3518286621344,0.38809526,0,,-0.00028700193,-0.0010156769,0.0061076401,9.7630501,-0.46672401,0.99971998,0.73910898,-0.081693001,-0.665878,-0.060405999,-0.38367689,-1.4628936,0.18208282
3518288651232,0.39012515,0,,-0.00028700193,-0.0010156769,0.0061076401,9.7630501,-0.46672401,0.99971998,0.73910898,-0.081693001,-0.665878,-0.060405999,-0.38367689,-1.4628936,0.18208282
3518290638624,0.39211254,0,,-0.00028700193,-0.0010156769,0.0061076401,9.7630501,-0.46672401,0.99971998,0.73910898,-0.081693001,-0.665878,-0.060405999,-0.38367689,-1.4628936,0.18208282
3518292627904,0.39410182,0,,0.0071679974,0.0029495716,0.0030545006,9.9195032,-0.50614703,0.99973702,0.73911399,-0.081698999,-0.66587299,-0.060391001,-0.38390596,-1.4628709,0.18232484
3518294784448,0.39625837,0,,0.0071679974,0.0029495716,0.0030545006,9.9195032,-0.50614703,0.99973702,0.73911399,-0.081698999,-0.66587299,-0.060391001,-0.38390596,-1.4628709,0.18232484
3518296643296,0.39811722,0,,0.0039847439,0.00090406309,0.0007268424,10.011521,-0.42803401,0.99394798,0.73912001,-0.081697002,-0.66586798,-0.060373001,-0.38405203,-1.4628511,0.18249849
3518298624832,0.40009875,0,,0.0039847439,0.00090406309,0.0007268424,10.011521,-0.42803401,0.99394798,0.73912001,-0.081697002,-0.66586798,-0.060373001,-0.38405203,-1.4628511,0.18249849
3518300619904,0.40209382,0,,0.0039847439,0.00090406309,0.0007268424,10.011521,-0.42803401,0.99394798,0.73912001,-0.081697002,-0.66586798,-0.060373001,-0.38405203,-1.4628511,0.18249849
3518302659104,0.40413302,0,,0.0062780366,0.0016573822,0.0011053345,10.051368,-0.51518297,0.99278802,0.739124,-0.081692003,-0.66586602,-0.060366001,-0.38405356,-1.462841,0.18251818
3518304620608,0.40609453,0,,0.0062780366,0.0016573822,0.0011053345,10.051368,-0.51518297,0.99278802,0.739124,-0.081692003,-0.66586602,-0.060366001,-0.38405356,-1.462841,0.18251818
3518306625440,0.40809936,0,,0.0043653475,0.003085812,-0.0001091878,9.9526863,-0.42410499,0.98613101,0.73912901,-0.081687003,-0.66586202,-0.060352001,-0.38411864,-1.4628278,0.18260893
3518308612096,0.41008602,0,,0.0043653475,0.003085812,-0.0001091878,9.9526863,-0.42410499,0.98613101,0.73912901,-0.081687003,-0.66586202,-0.060352001,-0.38411864,-1.4628278,0.18260893
3518310615808,0.41208973,0,,0.0043653475,0.003085812,-0.0001091878,9.9526863,-0.42410499,0.98613101,0.73912901,-0.081687003,-0.66586202,-0.060352001,-0.38411864,-1.4628278,0.18260893
3518312603840,0.41407776,0,,-0.0040350266,-0.0011083015,-0.0044655994,9.7864628,-0.28410399,0.98363501,0.73913097,-0.081684999,-0.66585898,-0.060361002,-0.38396807,-1.4628227,0.18244846
3518314795040,0.41626896,0,,-0.0040350266,-0.0011083015,-0.0044655994,9.7864628,-0.28410399,0.98363501,0.73913097,-0.081684999,-0.66585898,-0.060361002,-0.38396807,-1.4628227,0.18244846
3518316597536,0.41807146,0,,0.0032252636,-0.0010613696,-0.001652757,9.6797733,-0.36221701,0.96144497,0.73912698,-0.081679001,-0.66586202,-0.060373999,-0.38375505,-1.4628406,0.18222628
3518318633120,0.42010704,0,,0.0032252636,-0.0010613696,-0.001652757,9.6797733,-0.36221701,0.96144497,0.73912698,-0.081679001,-0.66586202,-0.060373999,-0.38375505,-1.4628406,0.18222628
3518320595616,0.42206954,0,,0.0032252636,-0.0010613696,-0.001652757,9.6797733,-0.36221701,0.96144497,0.73912698,-0.081679001,-0.66586202,-0.060373999,-0.38375505,-1.4628406,0.18222628
3518322601120,0.42407504,0,,0.0049132238,0.0042905603,-0.00046057492,9.5872431,-0.392557,0.94604599,0.73913199,-0.081667997,-0.66585898,-0.060369998,-0.38362942,-1.462831,0.18212245
3518324592480,0.4260664,0,,0.0049132238,0.0042905603,-0.00046057492,9.5872431,-0.392557,0.94604599,0.73913199,-0.081667997,-0.66585898,-0.060369998,-0.38362942,-1.462831,0.18212245
3518326610080,0.428084,0,,0.0042194732,0.0024871815,2.7698375e-05,9.5380516,-0.203141,1.018145,0.73913902,-0.081660002,-0.66585201,-0.060364999,-0.38353032,-1.4628134,0.18204244
3518328684736,0.43015866,0,,0.0042194732,0.0024871815,2.7698375e-05,9.5380516,-0.203141,1.018145,0.73913902,-0.081660002,-0.66585201,-0.060364999,-0.38353032,-1.4628134,0.18204244
3518330650400,0.43212432,0,,0.0042194732,0.0024871815,2.7698375e-05,9.5380516,-0.203141,1.018145,0.73913902,-0.081660002,-0.66585201,-0.060364999,-0.38353032,-1.4628134,0.18204244
3518332632160,0.43410608,0,,-0.0055170732,-0.0043641086,0.0011845724,9.5572834,-0.38745701,0.92115897,0.73913997,-0.081652999,-0.66585201,-0.060373999,-0.38332153,-1.4628195,0.18182914
3518334784192,0.43625811,0,,-0.0055170732,-0.0043641086,0.0011845724,9.5572834,-0.38745701,0.92115897,0.73913997,-0.081652999,-0.66585201,-0.060373999,-0.38332153,-1.4628195,0.18182914
3518336659232,0.43813315,0,,-0.0049363147,-0.0033352543,0.0049397181,9.7314072,-0.44411099,0.944161,0.73913097,-0.081671,-0.66585898,-0.060380001,-0.38355275,-1.4628376,0.18202615
3518338631392,0.44010531,0,,-0.0049363147,-0.0033352543,0.0049397181,9.7314072,-0.44411099,0.944161,0.73913097,-0.081671,-0.66585898,-0.060380001,-0.38355275,-1.4628376,0.18202615
3518340626656,0.44210058,0,,-0.0049363147,-0.0033352543,0.0049397181,9.7314072,-0.44411099,0.944161,0.73913097,-0.081671,-0.66585898,-0.060380001,-0.38355275,-1.4628376,0.18202615
3518342626560,0.44410048,0,,-0.0015043691,-0.0033373312,0.0042118111,9.7920532,-0.29188299,1.054365,0.739124,-0.081689999,-0.665865,-0.060375001,-0.38391528,-1.4628443,0.18237041
3518344623584,0.4460975,0,,-0.0015043691,-0.0033373312,0.0042118111,9.7920532,-0.29188299,1.054365,0.739124,-0.081689999,-0.665865,-0.060375001,-0.38391528,-1.4628443,0.18237041
3518346625984,0.4480999,0,,0.00074071775,-0.00024532348,2.5062928e-05,9.8651285,-0.409024,0.974424,0.739124,-0.081689,-0.66586399,-0.060376998,-0.38386581,-1.4628455,0.18231844
3518348620320,0.45009424,0,,0.00074071775,-0.00024532348,2.5062928e-05,9.8651285,-0.409024,0.974424,0.739124,-0.081689,-0.66586399,-0.060376998,-0.38386581,-1.4628455,0.18231844
3518350624576,0.4520985,0,,0.00074071775,-0.00024532348,2.5062928e-05,9.8651285,-0.409024,0.974424,0.739124,-0.081689,-0.66586399,-0.060376998,-0.38386581,-1.4628455,0.18231844
3518352618560,0.45409248,0,,-0.0059338225,-0.0056872424,0.0047086014,10.004908,-0.56441402,0.96778202,0.73912001,-0.081698,-0.66586798,-0.060380001,-0.38398345,-1.4628515,0.18242053
3518354832800,0.45630672,0,,-0.0059338225,-0.0056872424,0.0047086014,10.004908,-0.56441402,0.96778202,0.73912001,-0.081698,-0.66586798,-0.060380001,-0.38398345,-1.4628515,0.18242053
3518356615776,0.4580897,0,,1.7889625e-05,-0.0033132109,0.003790925,10.056322,-0.41319299,1.088855,0.73911101,-0.081722997,-0.66587502,-0.060371,-0.38448413,-1.4628608,0.1828968
3518358645792,0.46011971,0,,1.7889625e-05,-0.0033132109,0.003790925,10.056322,-0.41319299,1.088855,0.73911101,-0.081722997,-0.66587502,-0.060371,-0.38448413,-1.4628608,0.1828968
3518360614816,0.46208874,0,,1.7889625e-05,-0.0033132109,0.003790925,10.056322,-0.41319299,1.088855,0.73911101,-0.081722997,-0.66587502,-0.060371,-0.38448413,-1.4628608,0.1828968
3518362619328,0.46409325,0,,0.0036936403,-0.0011421784,-0.0011456516,9.9238043,-0.43586099,0.99977499,0.73911297,-0.081720002,-0.665874,-0.060368001,-0.38447824,-1.4628576,0.18290016
3518364612480,0.4660864,0,,0.0036936403,-0.0011421784,-0.0011456516,9.9238043,-0.43586099,0.99977499,0.73911297,-0.081720002,-0.665874,-0.060368001,-0.38447824,-1.4628576,0.18290016
3518366614400,0.46808832,0,,-7.2605697e-05,-0.0030430862,-0.0011976973,9.8050032,-0.51691401,0.939376,0.73911101,-0.081716999,-0.66587698,-0.060364,-0.38448436,-1.4628632,0.18291572
3518368686656,0.47016058,0,,-7.2605697e-05,-0.0030430862,-0.0011976973,9.8050032,-0.51691401,0.939376,0.73911101,-0.081716999,-0.66587698,-0.060364,-0.38448436,-1.4628632,0.18291572
3518370675456,0.47214938,0,,-7.2605697e-05,-0.0030430862,-0.0011976973,9.8050032,-0.51691401,0.939376,0.73911101,-0.081716999,-0.66587698,-0.060364,-0.38448436,-1.4628632,0.18291572
3518372625376,0.4740993,0,,-0.00064043114,-0.0020411625,-0.00079792962,9.7103252,-0.38848099,1.0206389,0.73910499,-0.081726,-0.66588199,-0.060366001,-0.38462108,-1.4628765,0.18303738
3518374794976,0.4762689,0,,-0.00064043114,-0.0020411625,-0.00079792962,9.7103252,-0.38848099,1.0206389,0.73910499,-0.081726,-0.66588199,-0.060366001,-0.38462108,-1.4628765,0.18303738
3518376609888,0.47808381,0,,0.0026501254,0.0025101152,-0.0019110134,9.6253338,-0.34655601,1.0121289,0.73910701,-0.081725001,-0.66588002,-0.060368001,-0.38456779,-1.462872,0.18298272
3518378607456,0.48008138,0,,0.0026501254,0.0025101152,-0.0019110134,9.6253338,-0.34655601,1.0121289,0.73910701,-0.081725001,-0.66588002,-0.060368001,-0.38456779,-1.462872,0.18298272
3518380601984,0.4820759,0,,0.0026501254,0.0025101152,-0.0019110134,9.6253338,-0.34655601,1.0121289,0.73910701,-0.081725001,-0.66588002,-0.060368001,-0.38456779,-1.462872,0.18298272
3518382602400,0.48407632,0,,0.0052082547,-0.00086186102,-0.0036160604,9.5612478,-0.396375,0.95360202,0.73911202,-0.081710003,-0.66587698,-0.060369,-0.38433273,-1.4628664,0.18276825
3518384597568,0.48607149,0,,0.0052082547,-0.00086186102,-0.0036160604,9.5612478,-0.396375,0.95360202,0.73911202,-0.081710003,-0.66587698,-0.060369,-0.38433273,-1.4628664,0.18276825
3518386601792,0.48807571,0,,0.0076167739,-0.0023738398,-0.0028725152,9.5471191,-0.27501699,0.97348398,0.73910999,-0.081694998,-0.66588098,-0.060364999,-0.38420892,-1.4628792,0.18267151
3518388629792,0.49010371,0,,0.0076167739,-0.0023738398,-0.0028725152,9.5471191,-0.27501699,0.97348398,0.73910999,-0.081694998,-0.66588098,-0.060364999,-0.38420892,-1.4628792,0.18267151
3518390641120,0.49211504,0,,0.0076167739,-0.0023738398,-0.0028725152,9.5471191,-0.27501699,0.97348398,0.73910999,-0.081694998,-0.66588098,-0.060364999,-0.38420892,-1.4628792,0.18267151
3518392632864,0.49410678,0,,0.0076027762,-0.0012526053,0.0013062044,9.6657972,-0.33304,0.964459,0.73910803,-0.081675999,-0.66588598,-0.06036,-0.38403628,-1.4628929,0.18253304
3518394808128,0.49628205,0,,0.0076027762,-0.0012526053,0.0013062044,9.6657972,-0.33304,0.964459,0.73910803,-0.081675999,-0.66588598,-0.06036,-0.38403628,-1.4628929,0.18253304
3518396623808,0.49809773,0,,0.007100209,0.0023912058,0.001301684,9.868288,-0.38936201,0.97198802,0.73911297,-0.081658997,-0.665883,-0.060350001,-0.38390369,-1.4628858,0.18243759
3518398629888,0.50010381,0,,0.007100209,0.0023912058,0.001301684,9.868288,-0.38936201,0.97198802,0.73911297,-0.081658997,-0.665883,-0.060350001,-0.38390369,-1.4628858,0.18243759
3518400631488,0.50210541,0,,0.007100209,0.0023912058,0.001301684,9.868288,-0.38936201,0.97198802,0.73911297,-0.081658997,-0.665883,-0.060350001,-0.38390369,-1.4628858,0.18243759
3518402654592,0.50412851,0,,0.0047847502,0.0023423714,0.0026828677,9.9038353,-0.35777801,0.98083001,0.73911899,-0.081653997,-0.66587901,-0.060339998,-0.38391315,-1.4628725,0.18246915
3518404632832,0.50610675,0,,0.0047847502,0.0023423714,0.0026828677,9.9038353,-0.35777801,0.98083001,0.73911899,-0.081653997,-0.66587901,-0.060339998,-0.38391315,-1.4628725,0.18246915
3518406625984,0.5080999,0,,0.0055204765,0.0018630168,0.0024504947,9.8780279,-0.39956298,0.94404298,0.73912299,-0.081648,-0.66587502,-0.060330998,-0.38390519,-1.4628587,0.18248234
3518408648608,0.51012253,0,,0.0055204765,0.0018630168,0.0024504947,9.8780279,-0.39956298,0.94404298,0.73912299,-0.081648,-0.66587502,-0.060330998,-0.38390519,-1.4628587,0.18248234
3518410615840,0.51208976,0,,0.0055204765,0.0018630168,0.0024504947,9.8780279,-0.39956298,0.94404298,0.73912299,-0.081648,-0.66587502,-0.060330998,-0.38390519,-1.4628587,0.18248234
3518412604096,0.51407802,0,,0.0024090955,-5.2028263e-05,-0.0033412932,9.9317532,-0.36613598,0.967278,0.73912299,-0.081638999,-0.66587597,-0.060327999,-0.38383791,-1.4628608,0.18243199
3518414764256,0.51623818,0,,0.0024090955,-5.2028263e-05,-0.0033412932,9.9317532,-0.36613598,0.967278,0.73912299,-0.081638999,-0.66587597,-0.060327999,-0.38383791,-1.4628608,0.18243199
3518416599168,0.51807309,0,,-0.00027563984,0.001548526,-0.0021612238,9.9002447,-0.39328501,0.98646402,0.73912299,-0.081633002,-0.66587597,-0.060334999,-0.38367416,-1.4628669,0.18226681
3518418604864,0.52007878,0,,-0.00027563984,0.001548526,-0.0021612238,9.9002447,-0.39328501,0.98646402,0.73912299,-0.081633002,-0.66587597,-0.060334999,-0.38367416,-1.4628669,0.18226681
3518420598336,0.52207226,0,,-0.00027563984,0.001548526,-0.0021612238,9.9002447,-0.39328501,0.98646402,0.73912299,-0.081633002,-0.66587597,-0.060334999,-0.38367416,-1.4628669,0.18226681
3518422599520,0.52407344,0,,-0.0013723524,-0.0029030061,-0.001701504,9.8106556,-0.41119701,0.97444302,0.73912299,-0.081630997,-0.66587597,-0.060341999,-0.38357516,-1.462872,0.18216047
3518424614400,0.52608832,0,,-0.0013723524,-0.0029030061,-0.001701504,9.8106556,-0.41119701,0.97444302,0.73912299,-0.081630997,-0.66587597,-0.060341999,-0.38357516,-1.462872,0.18216047
3518426641472,0.52811539,0,,0.0013933137,0.0007715926,-0.0028815211,9.7099113,-0.352956,0.97633702,0.73911899,-0.081629999,-0.66588002,-0.060346998,-0.38351108,-1.4628841,0.18209019
3518428700832,0.53017475,0,,0.0013933137,0.0007715926,-0.0028815211,9.7099113,-0.352956,0.97633702,0.73911899,-0.081629999,-0.66588002,-0.060346998,-0.38351108,-1.4628841,0.18209019
3518430599456,0.53207338,0,,0.0013933137,0.0007715926,-0.0028815211,9.7099113,-0.352956,0.97633702,0.73911899,-0.081629999,-0.66588002,-0.060346998,-0.38351108,-1.4628841,0.18209019
3518432628448,0.53410237,0,,0.0055156417,-0.0033762695,-0.0002369808,9.6690083,-0.38503301,0.98978102,0.73911899,-0.081620999,-0.66588098,-0.060348999,-0.38337176,-1.4628914,0.18196183
3518434785184,0.5362591,0,,0.0055156417,-0.0033762695,-0.0002369808,9.6690083,-0.38503301,0.98978102,0.73911899,-0.081620999,-0.66588098,-0.060348999,-0.38337176,-1.4628914,0.18196183
3518436630880,0.5381048,0,,0.0055156417,-0.0033762695,-0.0002369808,9.6690083,-0.38503301,0.98978102,0.73911899,-0.081620999,-0.66588098,-0.060348999,-0.38337176,-1.4628914,0.18196183
3518438608352,0.54008227,0,,0.0055156417,-0.0033762695,-0.0002369808,9.6690083,-0.38503301,0.98978102,0.73911899,-0.081620999,-0.66588098,-0.060348999,-0.38337176,-1.4628914,0.18196183
3518440591584,0.5420655,0,,0.0055156417,-0.0033762695,-0.0002369808,9.6690083,-0.38503301,0.98978102,0.73911899,-0.081620999,-0.66588098,-0.060348999,-0.38337176,-1.4628914,0.18196183
3518442619008,0.54409293,0,,-0.0042934053,-0.0031373863,0.0026852937,9.6378098,-0.362562,1.0084161,0.73912102,-0.081610002,-0.66588098,-0.060343999,-0.3832869,-1.4628892,0.18189979
3518444586944,0.54606086,0,,-0.0042934053,-0.0031373863,0.0026852937,9.6378098,-0.362562,1.0084161,0.73912102,-0.081610002,-0.66588098,-0.060343999,-0.3832869,-1.4628892,0.18189979
3518446617920,0.54809184,0,,-0.00033470178,-0.003386724,-6.6217792e-05,9.6305408,-0.398543,0.96662998,0.73911703,-0.081615999,-0.66588402,-0.060346998,-0.38336154,-1.4628974,0.18196065
3518448637984,0.5501119,0,,-0.00033470178,-0.003386724,-6.6217792e-05,9.6305408,-0.398543,0.96662998,0.73911703,-0.081615999,-0.66588402,-0.060346998,-0.38336154,-1.4628974,0.18196065
3518450623776,0.5520977,0,,-0.00033470178,-0.003386724,-6.6217792e-05,9.6305408,-0.398543,0.96662998,0.73911703,-0.081615999,-0.66588402,-0.060346998,-0.38336154,-1.4628974,0.18196065
3518452612160,0.55408608,0,,0.0015234456,0.0024094794,-0.00022821925,9.7683172,-0.44504499,0.99019599,0.73911703,-0.081619002,-0.66588402,-0.060348,-0.38336946,-1.4628974,0.18196384
3518454772384,0.5562463,0,,0.0015234456,0.0024094794,-0.00022821925,9.7683172,-0.44504499,0.99019599,0.73911703,-0.081619002,-0.66588402,-0.060348,-0.38336946,-1.4628974,0.18196384
3518456622848,0.55809677,0,,0.0052258997,-0.0018766653,0.001373033,9.8665047,-0.43051499,1.025999,0.73912102,-0.081615001,-0.66588098,-0.060341001,-0.38337555,-1.4628865,0.18198562
3518458637792,0.56011171,0,,0.0052258997,-0.0018766653,0.001373033,9.8665047,-0.43051499,1.025999,0.73912102,-0.081615001,-0.66588098,-0.060341001,-0.38337555,-1.4628865,0.18198562
3518460611488,0.56208541,0,,0.0052258997,-0.0018766653,0.001373033,9.8665047,-0.43051499,1.025999,0.73912102,-0.081615001,-0.66588098,-0.060341001,-0.38337555,-1.4628865,0.18198562
3518462610400,0.56408432,0,,0.0095174376,0.00056735416,0.00044832272,9.9007397,-0.45381299,1.00307,0.73912197,-0.081605002,-0.66588199,-0.060327999,-0.38341357,-1.4628858,0.18205674
3518464602976,0.5660769,0,,0.0095174376,0.00056735416,0.00044832272,9.9007397,-0.45381299,1.00307,0.73912197,-0.081605002,-0.66588199,-0.060327999,-0.38341357,-1.4628858,0.18205674
3518466605024,0.56807894,0,,0.0047367888,0.0040667393,-0.0024885602,9.8710079,-0.448596,0.96345502,0.73912901,-0.081592999,-0.66587698,-0.060318999,-0.38331367,-1.4628699,0.18198558
3518468601984,0.5700759,0,,0.0047367888,0.0040667393,-0.0024885602,9.8710079,-0.448596,0.96345502,0.73912901,-0.081592999,-0.66587698,-0.060318999,-0.38331367,-1.4628699,0.18198558
3518470651904,0.57212582,0,,0.0047367888,0.0040667393,-0.0024885602,9.8710079,-0.448596,0.96345502,0.73912901,-0.081592999,-0.66587698,-0.060318999,-0.38331367,-1.4628699,0.18198558
3518472600736,0.57407466,0,,0.0036731153,-0.0015313868,-0.0017297958,9.8631191,-0.40733299,0.98566401,0.73913199,-0.081583999,-0.665874,-0.060318001,-0.38318441,-1.4628652,0.18187085
3518474795552,0.57626947,0,,0.0036731153,-0.0015313868,-0.0017297958,9.8631191,-0.40733299,0.98566401,0.73913199,-0.081583999,-0.665874,-0.060318001,-0.38318441,-1.4628652,0.18187085
3518476606336,0.57808026,0,,0.0011683583,-0.0061471194,-0.00086016807,9.8031731,-0.34614798,1.010204,0.73912501,-0.081579,-0.665883,-0.060314998,-0.38320578,-1.4628869,0.18190391
3518478605152,0.58007907,0,,0.0011683583,-0.0061471194,-0.00086016807,9.8031731,-0.34614798,1.010204,0.73912501,-0.081579,-0.665883,-0.060314998,-0.38320578,-1.4628869,0.18190391
3518480594688,0.58206861,0,,0.0011683583,-0.0061471194,-0.00086016807,9.8031731,-0.34614798,1.010204,0.73912501,-0.081579,-0.665883,-0.060314998,-0.38320578,-1.4628869,0.18190391
3518482605600,0.58407952,0,,-0.0003350334,-0.0033564428,-0.0027061503,9.7166243,-0.36652499,0.94876999,0.73911798,-0.081574999,-0.66589099,-0.060322002,-0.38312731,-1.4629146,0.181822
3518484594688,0.58606861,0,,-0.0003350334,-0.0033564428,-0.0027061503,9.7166243,-0.36652499,0.94876999,0.73911798,-0.081574999,-0.66589099,-0.060322002,-0.38312731,-1.4629146,0.181822
3518486593664,0.58806758,0,,0.0033943686,-0.0019037878,0.0011702956,9.6724052,-0.33654001,0.93896902,0.73911399,-0.081569999,-0.66589499,-0.060323,-0.38307365,-1.4629257,0.18177343
3518488637952,0.59011187,0,,0.0033943686,-0.0019037878,0.0011702956,9.6724052,-0.33654001,0.93896902,0.73911399,-0.081569999,-0.66589499,-0.060323,-0.38307365,-1.4629257,0.18177343
3518490655328,0.59212925,0,,0.0033943686,-0.0019037878,0.0011702956,9.6724052,-0.33654001,0.93896902,0.73911399,-0.081569999,-0.66589499,-0.060323,-0.38307365,-1.4629257,0.18177343
3518492594496,0.59406842,0,,0.0046329942,0.00042078144,3.5587262e-05,9.678915,-0.29368499,0.99634498,0.73911399,-0.081560001,-0.66589701,-0.060316999,-0.38302725,-1.462929,0.18174924
3518494783808,0.59625773,0,,0.0046329942,0.00042078144,3.5587262e-05,9.678915,-0.29368499,0.99634498,0.73911399,-0.081560001,-0.66589701,-0.060316999,-0.38302725,-1.462929,0.18174924
3518496585824,0.59805974,0,,0.0035809792,0.0011037986,0.00087423542,9.6790314,-0.368083,0.98019803,0.73911798,-0.081551,-0.66589397,-0.060316,-0.38288124,-1.4629241,0.18161802
3518498585472,0.60005939,0,,0.0035809792,0.0011037986,0.00087423542,9.6790314,-0.368083,0.98019803,0.73911798,-0.081551,-0.66589397,-0.060316,-0.38288124,-1.4629241,0.18161802
3518500589248,0.60206317,0,,0.0035809792,0.0011037986,0.00087423542,9.6790314,-0.368083,0.98019803,0.73911798,-0.081551,-0.66589397,-0.060316,-0.38288124,-1.4629241,0.18161802
3518502784352,0.60425827,0,,0.0073381495,-0.0029382966,0.002398955,9.6850996,-0.387914,0.94936103,0.73911899,-0.081542,-0.66589499,-0.060307998,-0.38286013,-1.4629229,0.18162053
3518504653056,0.60612698,0,,0.0073381495,-0.0029382966,0.002398955,9.6850996,-0.387914,0.94936103,0.73911899,-0.081542,-0.66589499,-0.060307998,-0.38286013,-1.4629229,0.18162053
3518506642144,0.60811606,0,,0.004574595,-0.0020544097,0.0013217728,9.7148867,-0.33476001,0.97046399,0.739115,-0.081533998,-0.66589999,-0.060297001,-0.38292675,-1.4629346,0.18171394
3518508621728,0.61009565,0,,0.004574595,-0.0020544097,0.0013217728,9.7148867,-0.33476001,0.97046399,0.739115,-0.081533998,-0.66589999,-0.060297001,-0.38292675,-1.4629346,0.18171394
3518510619552,0.61209347,0,,0.004574595,-0.0020544097,0.0013217728,9.7148867,-0.33476001,0.97046399,0.739115,-0.081533998,-0.66589999,-0.060297001,-0.38292675,-1.4629346,0.18171394
3518512608672,0.61408259,0,,0.0012357978,0.0031259022,-0.00054845228,9.8305368,-0.39473701,0.99250501,0.73911703,-0.081528999,-0.66589898,-0.060297001,-0.38284638,-1.4629334,0.18164067
3518514776672,0.61625059,0,,0.0012357978,0.0031259022,-0.00054845228,9.8305368,-0.39473701,0.99250501,0.73911703,-0.081528999,-0.66589898,-0.060297001,-0.38284638,-1.4629334,0.18164067
3518516604064,0.61807798,0,,0.0019412075,0.0034772369,-0.00015163421,9.891057,-0.449413,0.99573702,0.73912299,-0.081527002,-0.66589302,-0.060297001,-0.38277022,-1.4629175,0.18156737
3518518606848,0.62008077,0,,0.0019412075,0.0034772369,-0.00015163421,9.891057,-0.449413,0.99573702,0.73912299,-0.081527002,-0.66589302,-0.060297001,-0.38277022,-1.4629175,0.18156737
3518520617408,0.62209133,0,,0.0019412075,0.0034772369,-0.00015163421,9.891057,-0.449413,0.99573702,0.73912299,-0.081527002,-0.66589302,-0.060297001,-0.38277022,-1.4629175,0.18156737
3518522619232,0.62409315,0,,-0.00073527231,0.0014847342,-0.00054513614,9.8181334,-0.408061,0.995848,0.73912799,-0.081527002,-0.66588801,-0.060295999,-0.38274482,-1.4629029,0.18154496
3518524605376,0.6260793,0,,-0.00073527231,0.0014847342,-0.00054513614,9.8181334,-0.408061,0.995848,0.73912799,-0.081527002,-0.66588801,-0.060295999,-0.38274482,-1.4629029,0.18154496
3518526606720,0.62808064,0,,-0.0065041442,-0.0058025916,-0.0011448662,9.8259802,-0.378876,0.99954998,0.739124,-0.081536002,-0.66588998,-0.060304999,-0.38277298,-1.4629129,0.18154634
3518528656256,0.63013018,0,,-0.0065041442,-0.0058025916,-0.0011448662,9.8259802,-0.378876,0.99954998,0.739124,-0.081536002,-0.66588998,-0.060304999,-0.38277298,-1.4629129,0.18154634
3518530630048,0.63210397,0,,-0.0065041442,-0.0058025916,-0.0011448662,9.8259802,-0.378876,0.99954998,0.739124,-0.081536002,-0.66588998,-0.060304999,-0.38277298,-1.4629129,0.18154634
3518532604896,0.63407882,0,,-0.0063571351,-0.0050320283,-0.0035188457,9.8116388,-0.428054,1.002086,0.739115,-0.081543997,-0.66589701,-0.060322002,-0.38275261,-1.4629362,0.18149055
3518534792192,0.63626611,0,,-0.0063571351,-0.0050320283,-0.0035188457,9.8116388,-0.428054,1.002086,0.739115,-0.081543997,-0.66589701,-0.060322002,-0.38275261,-1.4629362,0.18149055
3518536648832,0.63812275,0,,0.0017831854,-0.0048265857,-0.0024675813,9.7653103,-0.42568201,1.010769,0.73910898,-0.081546001,-0.66590297,-0.06033,-0.38271992,-1.4629555,0.18144403
3518538616800,0.64009072,0,,0.0017831854,-0.0048265857,-0.0024675813,9.7653103,-0.42568201,1.010769,0.73910898,-0.081546001,-0.66590297,-0.06033,-0.38271992,-1.4629555,0.18144403
3518540595200,0.64206912,0,,0.0017831854,-0.0048265857,-0.0024675813,9.7653103,-0.42568201,1.010769,0.73910898,-0.081546001,-0.66590297,-0.06033,-0.38271992,-1.4629555,0.18144403
3518542595424,0.64406934,0,,-0.0019770391,-0.0017546319,-7.2762774e-05,9.6756029,-0.374607,0.98461199,0.73910499,-0.081547998,-0.66590703,-0.060332,-0.38276369,-1.4629677,0.18148283
3518544590336,0.64606426,0,,-0.0019770391,-0.0017546319,-7.2762774e-05,9.6756029,-0.374607,0.98461199,0.73910499,-0.081547998,-0.66590703,-0.060332,-0.38276369,-1.4629677,0.18148283
3518546591072,0.64806499,0,,0.00046621236,0.0012313821,0.0019631115,9.6798363,-0.392836,0.97523999,0.73910499,-0.081551,-0.66590703,-0.060332999,-0.3827829,-1.4629661,0.18149631
3518548584896,0.65005882,0,,0.00046621236,0.0012313821,0.0019631115,9.6798363,-0.392836,0.97523999,0.73910499,-0.081551,-0.66590703,-0.060332999,-0.3827829,-1.4629661,0.18149631
3518550589600,0.65206352,0,,0.00046621236,0.0012313821,0.0019631115,9.6798363,-0.392836,0.97523999,0.73910499,-0.081551,-0.66590703,-0.060332999,-0.3827829,-1.4629661,0.18149631
3518552580576,0.6540545,0,,-0.00073052498,0.0011930198,0.0017033366,9.7158108,-0.40340298,0.999192,0.73910898,-0.081556998,-0.66590202,-0.060332999,-0.38283237,-1.4629518,0.18153661
3518554808192,0.65628211,0,,-0.00073052498,0.0011930198,0.0017033366,9.7158108,-0.40340298,0.999192,0.73910898,-0.081556998,-0.66590202,-0.060332999,-0.38283237,-1.4629518,0.18153661
3518556585440,0.65805936,0,,0.0066555688,0.0028518156,0.0032466964,9.6796732,-0.37778601,0.98079902,0.73911703,-0.081554003,-0.66589397,-0.060322002,-0.38286699,-1.4629263,0.18159157
3518558587072,0.66006099,0,,0.0066555688,0.0028518156,0.0032466964,9.6796732,-0.37778601,0.98079902,0.73911703,-0.081554003,-0.66589397,-0.060322002,-0.38286699,-1.4629263,0.18159157
3518560578336,0.66205226,0,,0.0066555688,0.0028518156,0.0032466964,9.6796732,-0.37778601,0.98079902,0.73911703,-0.081554003,-0.66589397,-0.060322002,-0.38286699,-1.4629263,0.18159157
3518562611904,0.66408582,0,,0.00178055,0.0011068529,-0.0023482532,9.7433023,-0.35770601,0.96959102,0.73912299,-0.081546001,-0.66588902,-0.060318001,-0.38276879,-1.4629129,0.18151011
3518564609664,0.66608358,0,,0.00178055,0.0011068529,-0.0023482532,9.7433023,-0.35770601,0.96959102,0.73912299,-0.081546001,-0.66588902,-0.060318001,-0.38276879,-1.4629129,0.18151011
3518566609088,0.66808301,0,,-0.0013768205,-0.00036360445,-0.0011057185,9.8014841,-0.41244,0.956352,0.73912197,-0.081541002,-0.66588998,-0.060325,-0.38262394,-1.4629195,0.18136132
3518568604192,0.67007811,0,,-0.0013768205,-0.00036360445,-0.0011057185,9.8014841,-0.41244,0.956352,0.73912197,-0.081541002,-0.66588998,-0.060325,-0.38262394,-1.4629195,0.18136132
3518570690016,0.67216394,0,,-0.0013768205,-0.00036360445,-0.0011057185,9.8014841,-0.41244,0.956352,0.73912197,-0.081541002,-0.66588998,-0.060325,-0.38262394,-1.4629195,0.18136132
3518572661504,0.67413542,0,,-0.0033090047,-0.00046005133,0.00096144953,9.8937473,-0.41835201,1.004577,0.73912102,-0.081548996,-0.66588998,-0.06033,-0.38267135,-1.4629207,0.18139053
3518574769120,0.67624304,0,,-0.0033090047,-0.00046005133,0.00096144953,9.8937473,-0.41835201,1.004577,0.73912102,-0.081548996,-0.66588998,-0.06033,-0.38267135,-1.4629207,0.18139053
3518576606432,0.67808035,0,,-0.0029343871,-0.0035587614,-0.0011937877,9.8294878,-0.36690101,1.0057729,0.73911703,-0.081556998,-0.665892,-0.060339,-0.38269695,-1.462929,0.18139255
3518578607424,0.68008134,0,,-0.0029343871,-0.0035587614,-0.0011937877,9.8294878,-0.36690101,1.0057729,0.73911703,-0.081556998,-0.665892,-0.060339,-0.38269695,-1.462929,0.18139255
3518580597344,0.68207126,0,,-0.0029343871,-0.0035587614,-0.0011937877,9.8294878,-0.36690101,1.0057729,0.73911703,-0.081556998,-0.665892,-0.060339,-0.38269695,-1.462929,0.18139255
3518582600512,0.68407443,0,,-0.0043322911,-0.0031325867,-0.0022974641,9.824791,-0.43829799,0.96250498,0.73910999,-0.081560001,-0.66589803,-0.060350999,-0.38263882,-1.462949,0.1813134
3518584595072,0.68606899,0,,-0.0043322911,-0.0031325867,-0.0022974641,9.824791,-0.43829799,0.96250498,0.73910999,-0.081560001,-0.66589803,-0.060350999,-0.38263882,-1.462949,0.1813134
3518586616640,0.68809056,0,,0.0030713431,-0.0016352862,0.00043221333,9.8133011,-0.43378699,0.96165401,0.73910701,-0.081565,-0.66590101,-0.060352001,-0.38270604,-1.4629568,0.18137174
3518588615072,0.69008899,0,,0.0030713431,-0.0016352862,0.00043221333,9.8133011,-0.43378699,0.96165401,0.73910701,-0.081565,-0.66590101,-0.060352001,-0.38270604,-1.4629568,0.18137174
3518590596928,0.69207085,0,,0.0030713431,-0.0016352862,0.00043221333,9.8133011,-0.43378699,0.96165401,0.73910701,-0.081565,-0.66590101,-0.060352001,-0.38270604,-1.4629568,0.18137174
3518592593184,0.6940671,0,,0.0054374509,0.001413612,-0.0034914963,9.7602415,-0.374428,0.99078101,0.73910701,-0.081556998,-0.66590202,-0.060348999,-0.38264921,-1.46296,0.18133026
3518594785664,0.69625958,0,,0.0054374509,0.001413612,-0.0034914963,9.7602415,-0.374428,0.99078101,0.73910701,-0.081556998,-0.66590202,-0.060348999,-0.38264921,-1.46296,0.18133026
3518596588384,0.6980623,0,,0.0054139938,-0.00091573932,0.00034423129,9.7039204,-0.36665401,0.97733301,0.73910999,-0.081542999,-0.66590101,-0.060345002,-0.38249039,-1.4629595,0.181198
3518598592544,0.70006646,0,,0.0054139938,-0.00091573932,0.00034423129,9.7039204,-0.36665401,0.97733301,0.73910999,-0.081542999,-0.66590101,-0.060345002,-0.38249039,-1.4629595,0.181198
3518600586304,0.70206022,0,,0.0054139938,-0.00091573932,0.00034423129,9.7039204,-0.36665401,0.97733301,0.73910999,-0.081542999,-0.66590101,-0.060345002,-0.38249039,-1.4629595,0.181198
3518602636640,0.70411056,0,,0.0030523366,-0.0023668061,6.1069072e-05,9.6450233,-0.37986401,0.959153,0.73910803,-0.081536002,-0.665905,-0.060339998,-0.38246845,-1.4629672,0.18119241
3518604698944,0.70617286,0,,0.0030523366,-0.0023668061,6.1069072e-05,9.6450233,-0.37986401,0.959153,0.73910803,-0.081536002,-0.665905,-0.060339998,-0.38246845,-1.4629672,0.18119241
3518606597216,0.70807114,0,,0.00023256513,-0.0033181154,0.0028658656,9.6672525,-0.33335501,0.985039,0.73910201,-0.081533998,-0.66591102,-0.060339,-0.38251941,-1.4629849,0.18124757
3518608587616,0.71006154,0,,0.00023256513,-0.0033181154,0.0028658656,9.6672525,-0.33335501,0.985039,0.73910201,-0.081533998,-0.66591102,-0.060339,-0.38251941,-1.4629849,0.18124757
3518610590080,0.712064,0,,0.00023256513,-0.0033181154,0.0028658656,9.6672525,-0.33335501,0.985039,0.73910201,-0.081533998,-0.66591102,-0.060339,-0.38251941,-1.4629849,0.18124757
3518612576800,0.71405072,0,,-0.0031996773,-0.0022133043,0.0050087283,9.7292223,-0.362694,0.98419303,0.73909903,-0.081541002,-0.665914,-0.060339998,-0.38261256,-1.4629898,0.18132965
3518614774208,0.71624813,0,,-0.0031996773,-0.0022133043,0.0050087283,9.7292223,-0.362694,0.98419303,0.73909903,-0.081541002,-0.665914,-0.060339998,-0.38261256,-1.4629898,0.18132965
3518616575360,0.71804928,0,,-0.0020461543,-0.0032113361,0.0034961737,9.7803221,-0.36496699,0.98018301,0.73909599,-0.081551999,-0.66591698,-0.060336001,-0.3828332,-1.4629928,0.18154062
3518618594112,0.72006803,0,,-0.0020461543,-0.0032113361,0.0034961737,9.7803221,-0.36496699,0.98018301,0.73909599,-0.081551999,-0.66591698,-0.060336001,-0.3828332,-1.4629928,0.18154062
3518620643936,0.72211786,0,,-0.0020461543,-0.0032113361,0.0034961737,9.7803221,-0.36496699,0.98018301,0.73909599,-0.081551999,-0.66591698,-0.060336001,-0.3828332,-1.4629928,0.18154062
3518622612192,0.72408611,0,,0.00012554153,-0.0010099522,0.0022157128,9.7970161,-0.401649,0.95354998,0.73909402,-0.081557997,-0.66591799,-0.060337,-0.38290627,-1.4629954,0.18160324
3518624604448,0.72607837,0,,0.00012554153,-0.0010099522,0.0022157128,9.7970161,-0.401649,0.95354998,0.73909402,-0.081557997,-0.66591799,-0.060337,-0.38290627,-1.4629954,0.18160324
3518626605184,0.7280791,0,,-0.00046507788,-0.0051760356,0.0021729349,9.8692684,-0.425863,0.97091401,0.73908901,-0.081563003,-0.665923,-0.060332999,-0.38305481,-1.463005,0.18175021
3518628598176,0.7300721,0,,-0.00046507788,-0.0051760356,0.0021729349,9.8692684,-0.425863,0.97091401,0.73908901,-0.081563003,-0.665923,-0.060332999,-0.38305481,-1.463005,0.18175021
3518630602816,0.73207674,0,,-0.00046507788,-0.0051760356,0.0021729349,9.8692684,-0.425863,0.97091401,0.73908901,-0.081563003,-0.665923,-0.060332999,-0.38305481,-1.463005,0.18175021
3518632596864,0.73407078,0,,-0.0036360445,-0.0025706779,-0.0027959652,9.8640156,-0.396824,0.99403697,0.73908001,-0.081574,-0.66593099,-0.060336001,-0.38323371,-1.4630238,0.1819102
3518634767328,0.73624125,0,,-0.0036360445,-0.0025706779,-0.0027959652,9.8640156,-0.396824,0.99403697,0.73908001,-0.081574,-0.66593099,-0.060336001,-0.38323371,-1.4630238,0.1819102
3518636675168,0.73814909,0,,0.0032217906,0.00059449402,-0.0012358328,9.8214588,-0.38760298,0.98873901,0.73908103,-0.081571996,-0.66592997,-0.060343001,-0.38311027,-1.4630265,0.18177884
3518638628672,0.74010259,0,,0.0032217906,0.00059449402,-0.0012358328,9.8214588,-0.38760298,0.98873901,0.73908103,-0.081571996,-0.66592997,-0.060343001,-0.38311027,-1.4630265,0.18177884
3518640611296,0.74208522,0,,0.0032217906,0.00059449402,-0.0012358328,9.8214588,-0.38760298,0.98873901,0.73908103,-0.081571996,-0.66592997,-0.060343001,-0.38311027,-1.4630265,0.18177884
3518642614688,0.74408861,0,,-0.00021046926,-0.0056680614,0.00027523841,9.7627268,-0.39992899,0.97492701,0.73907697,-0.081568003,-0.66593498,-0.060339,-0.38314649,-1.4630375,0.18182742
3518644598752,0.74607267,0,,-0.00021046926,-0.0056680614,0.00027523841,9.7627268,-0.39992899,0.97492701,0.73907697,-0.081568003,-0.66593498,-0.060339,-0.38314649,-1.4630375,0.18182742
3518646597664,0.74807158,0,,-0.0025773103,-0.004372678,-0.0016490045,9.7362804,-0.387187,1.00117,0.73906797,-0.081573002,-0.66594398,-0.060343999,-0.38321304,-1.4630608,0.18187964
3518648590016,0.75006394,0,,-0.0025773103,-0.004372678,-0.0016490045,9.7362804,-0.387187,1.00117,0.73906797,-0.081573002,-0.66594398,-0.060343999,-0.38321304,-1.4630608,0.18187964
3518650632032,0.75210595,0,,-0.0025773103,-0.004372678,-0.0016490045,9.7362804,-0.387187,1.00117,0.73906797,-0.081573002,-0.66594398,-0.060343999,-0.38321304,-1.4630608,0.18187964
3518652623200,0.75409712,0,,-0.0028882406,-2.2479841e-05,0.0012017988,9.6956787,-0.38035899,1.006636,0.739066,-0.081574,-0.66594499,-0.060348999,-0.38317459,-1.463068,0.181832
3518654784800,0.75625872,0,,-0.0028882406,-2.2479841e-05,0.0012017988,9.6956787,-0.38035899,1.006636,0.739066,-0.081574,-0.66594499,-0.060348999,-0.38317459,-1.463068,0.181832
3518656585600,0.75805952,0,,-1.2915436e-05,-0.00017840756,0.0032604148,9.6608734,-0.39076999,0.98748201,0.73906797,-0.081582002,-0.66594303,-0.060350999,-0.38324493,-1.4630604,0.18188761
3518658591648,0.76006557,0,,-1.2915436e-05,-0.00017840756,0.0032604148,9.6608734,-0.39076999,0.98748201,0.73906797,-0.081582002,-0.66594303,-0.060350999,-0.38324493,-1.4630604,0.18188761
3518660581632,0.76205555,0,,-1.2915436e-05,-0.00017840756,0.0032604148,9.6608734,-0.39076999,0.98748201,0.73906797,-0.081582002,-0.66594303,-0.060350999,-0.38324493,-1.4630604,0.18188761
3518662587264,0.76406118,0,,-0.0017674775,0.0013495235,0.00035512213,9.6675196,-0.418486,0.97282201,0.73907,-0.081588998,-0.66593897,-0.060350999,-0.38332915,-1.4630498,0.18196261
3518664582784,0.7660567,0,,-0.0017674775,0.0013495235,0.00035512213,9.6675196,-0.418486,0.97282201,0.73907,-0.081588998,-0.66593897,-0.060350999,-0.38332915,-1.4630498,0.18196261
3518666581824,0.76805574,0,,0.0044355796,0.0011848691,-0.0011042523,9.7267923,-0.385977,0.99132901,0.73907298,-0.081584997,-0.66593599,-0.060350001,-0.38325901,-1.4630419,0.18189836
3518668617984,0.7700919,0,,0.0044355796,0.0011848691,-0.0011042523,9.7267923,-0.385977,0.99132901,0.73907298,-0.081584997,-0.66593599,-0.060350001,-0.38325901,-1.4630419,0.18189836
3518670687584,0.7721615,0,,0.0044355796,0.0011848691,-0.0011042523,9.7267923,-0.385977,0.99132901,0.73907298,-0.081584997,-0.66593599,-0.060350001,-0.38325901,-1.4630419,0.18189836
3518672577280,0.7740512,0,,9.7319561e-05,-0.0013596115,0.0016916953,9.7992458,-0.40832901,0.988267,0.73907602,-0.081580997,-0.66593403,-0.060348,-0.38321337,-1.4630368,0.18186324
3518674770624,0.77624454,0,,9.7319561e-05,-0.0013596115,0.0016916953,9.7992458,-0.40832901,0.988267,0.73907602,-0.081580997,-0.66593403,-0.060348,-0.38321337,-1.4630368,0.18186324
3518676615712,0.77808963,0,,0.00028639108,-0.0020892289,-0.00077241294,9.820693,-0.38063401,0.98695898,0.73907399,-0.081582002,-0.66593599,-0.060346998,-0.38325198,-1.4630387,0.18190051
3518678612960,0.78008688,0,,0.00028639108,-0.0020892289,-0.00077241294,9.820693,-0.38063401,0.98695898,0.73907399,-0.081582002,-0.66593599,-0.060346998,-0.38325198,-1.4630387,0.18190051
3518680600576,0.7820745,0,,0.00028639108,-0.0020892289,-0.00077241294,9.820693,-0.38063401,0.98695898,0.73907399,-0.081582002,-0.66593599,-0.060346998,-0.38325198,-1.4630387,0.18190051
3518682629088,0.78410301,0,,0.0031863256,-0.0035772966,0.0030688822,9.8515825,-0.396404,0.97695398,0.73907101,-0.081580997,-0.66593999,-0.060343001,-0.38330095,-1.4630503,0.18195669
3518684603488,0.78607741,0,,0.0031863256,-0.0035772966,0.0030688822,9.8515825,-0.396404,0.97695398,0.73907101,-0.081580997,-0.66593999,-0.060343001,-0.38330095,-1.4630503,0.18195669
3518686604544,0.78807846,0,,-0.00023317599,-0.0030017568,-0.0006537305,9.8414593,-0.38312501,0.99771398,0.739066,-0.081580997,-0.66594601,-0.060339998,-0.38338408,-1.4630615,0.18204419
3518688599872,0.79007379,0,,-0.00023317599,-0.0030017568,-0.0006537305,9.8414593,-0.38312501,0.99771398,0.739066,-0.081580997,-0.66594601,-0.060339998,-0.38338408,-1.4630615,0.18204419
3518690682048,0.79215597,0,,-0.00023317599,-0.0030017568,-0.0006537305,9.8414593,-0.38312501,0.99771398,0.739066,-0.081580997,-0.66594601,-0.060339998,-0.38338408,-1.4630615,0.18204419
3518692621024,0.79409494,0,,-0.0012585395,-0.003262125,0.0025358412,9.8262987,-0.39433199,0.98465502,0.73906201,-0.081583001,-0.66595,-0.060343999,-0.3833896,-1.4630731,0.18204164
3518694775680,0.7962496,0,,-0.0012585395,-0.003262125,0.0025358412,9.8262987,-0.39433199,0.98465502,0.73906201,-0.081583001,-0.66595,-0.060343999,-0.3833896,-1.4630731,0.18204164
3518696597632,0.79807155,0,,-0.003624246,-0.0050736719,0.0032416525,9.7943172,-0.38469601,0.97511899,0.73905498,-0.081594996,-0.66595501,-0.060341999,-0.383619,-1.4630841,0.18225782
3518698600416,0.80007434,0,,-0.003624246,-0.0050736719,0.0032416525,9.7943172,-0.38469601,0.97511899,0.73905498,-0.081594996,-0.66595501,-0.060341999,-0.383619,-1.4630841,0.18225782
3518700604480,0.8020784,0,,-0.003624246,-0.0050736719,0.0032416525,9.7943172,-0.38469601,0.97511899,0.73905498,-0.081594996,-0.66595501,-0.060341999,-0.383619,-1.4630841,0.18225782
3518702726848,0.80420077,0,,-0.0013545151,-0.0010770078,-0.00021886428,9.755127,-0.41007799,0.975761,0.739052,-0.081602,-0.665959,-0.060346,-0.38369054,-1.4630929,0.18231285
3518704676064,0.80614998,0,,-0.0013545151,-0.0010770078,-0.00021886428,9.755127,-0.41007799,0.975761,0.739052,-0.081602,-0.665959,-0.060346,-0.38369054,-1.4630929,0.18231285
3518706626688,0.80810061,0,,-0.0010667103,-0.0022467449,-0.0013579011,9.7083006,-0.38716099,0.98302102,0.73904997,-0.081601001,-0.66596001,-0.060353,-0.38361527,-1.4631013,0.18222936
3518708586976,0.8100609,0,,-0.0010667103,-0.0022467449,-0.0013579011,9.7083006,-0.38716099,0.98302102,0.73904997,-0.081601001,-0.66596001,-0.060353,-0.38361527,-1.4631013,0.18222936
3518710590784,0.8120647,0,,-0.0010667103,-0.0022467449,-0.0013579011,9.7083006,-0.38716099,0.98302102,0.73904997,-0.081601001,-0.66596001,-0.060353,-0.38361527,-1.4631013,0.18222936
3518712581568,0.81405549,0,,-0.0034765737,-0.0033428815,0.0016621993,9.6601429,-0.35732201,0.97915101,0.73904502,-0.081606999,-0.66596401,-0.060355999,-0.38367113,-1.463113,0.18227224
3518714780608,0.81625453,0,,-0.0034765737,-0.0033428815,0.0016621993,9.6601429,-0.35732201,0.97915101,0.73904502,-0.081606999,-0.66596401,-0.060355999,-0.38367113,-1.463113,0.18227224
3518716598240,0.81807216,0,,-0.0060075801,-0.0046057493,0.0036409836,9.6653175,-0.368747,0.96092802,0.73904002,-0.081621997,-0.665968,-0.060361002,-0.38384737,-1.4631195,0.18242003
3518718610368,0.82008429,0,,-0.0060075801,-0.0046057493,0.0036409836,9.6653175,-0.368747,0.96092802,0.73904002,-0.081621997,-0.665968,-0.060361002,-0.38384737,-1.4631195,0.18242003
3518720580192,0.82205411,0,,-0.0060075801,-0.0046057493,0.0036409836,9.6653175,-0.368747,0.96092802,0.73904002,-0.081621997,-0.665968,-0.060361002,-0.38384737,-1.4631195,0.18242003
3518722581184,0.8240551,0,,0.0015196931,-0.0021829531,-0.00033492869,9.7099371,-0.34600899,0.99597698,0.739034,-0.081628002,-0.66597301,-0.060364,-0.38393935,-1.4631346,0.18249937
3518724575008,0.82604893,0,,0.0015196931,-0.0021829531,-0.00033492869,9.7099371,-0.34600899,0.99597698,0.739034,-0.081628002,-0.66597301,-0.060364,-0.38393935,-1.4631346,0.18249937
3518726578624,0.82805254,0,,-5.3354715e-05,0.00090805991,-0.00053407075,9.7851791,-0.400224,0.984658,0.73903501,-0.081621997,-0.66597301,-0.060366001,-0.38383205,-1.4631368,0.18239699
3518728572640,0.83004656,0,,-5.3354715e-05,0.00090805991,-0.00053407075,9.7851791,-0.400224,0.984658,0.73903501,-0.081621997,-0.66597301,-0.060366001,-0.38383205,-1.4631368,0.18239699
3518730653152,0.83212707,0,,-5.3354715e-05,0.00090805991,-0.00053407075,9.7851791,-0.400224,0.984658,0.73903501,-0.081621997,-0.66597301,-0.060366001,-0.38383205,-1.4631368,0.18239699
3518732615200,0.83408912,0,,0.0032884271,0.0019436336,-0.0001548107,9.8211842,-0.42723501,0.98257899,0.73903799,-0.081621997,-0.66597003,-0.060366999,-0.38379157,-1.4631291,0.18235581
3518734769472,0.83624339,0,,0.0032884271,0.0019436336,-0.0001548107,9.8211842,-0.42723501,0.98257899,0.73903799,-0.081621997,-0.66597003,-0.060366999,-0.38379157,-1.4631291,0.18235581
3518736655392,0.83812931,0,,0.0058626657,-0.0018741346,0.0016006763,9.845705,-0.383775,0.99824101,0.73904002,-0.081615999,-0.66596901,-0.060359001,-0.38380922,-1.4631235,0.18239381
3518738607968,0.84008189,0,,0.0058626657,-0.0018741346,0.0016006763,9.845705,-0.383775,0.99824101,0.73904002,-0.081615999,-0.66596901,-0.060359001,-0.38380922,-1.4631235,0.18239381
3518740599296,0.84207322,0,,0.0058626657,-0.0018741346,0.0016006763,9.845705,-0.383775,0.99824101,0.73904002,-0.081615999,-0.66596901,-0.060359001,-0.38380922,-1.4631235,0.18239381
3518742612768,0.84408669,0,,0.0058626657,-0.0018741346,0.0016006763,9.845705,-0.383775,0.99824101,0.73904002,-0.081615999,-0.66596901,-0.060359001,-0.38380922,-1.4631235,0.18239381
3518744598688,0.84607261,0,,0.0058626657,-0.0018741346,0.0016006763,9.845705,-0.383775,0.99824101,0.73904002,-0.081615999,-0.66596901,-0.060359001,-0.38380922,-1.4631235,0.18239381
3518746598272,0.84807219,0,,0.0021659536,-0.0078476112,0.00093280865,9.8259468,-0.399681,0.99215102,0.73902398,-0.081619002,-0.665986,-0.060350001,-0.38406818,-1.4631623,0.18266116
3518748621952,0.85009587,0,,0.0021659536,-0.0078476112,0.00093280865,9.8259468,-0.399681,0.99215102,0.73902398,-0.081619002,-0.665986,-0.060350001,-0.38406818,-1.4631623,0.18266116
3518750619008,0.85209293,0,,0.0021659536,-0.0078476112,0.00093280865,9.8259468,-0.399681,0.99215102,0.73902398,-0.081619002,-0.665986,-0.060350001,-0.38406818,-1.4631623,0.18266116
3518752611104,0.85408502,0,,-0.0018895632,-0.0019970929,-0.0016638572,9.802207,-0.40270099,0.98174101,0.73901701,-0.081617996,-0.665995,-0.060352001,-0.38409048,-1.4631857,0.18268338
3518754919136,0.85639306,0,,-0.0018895632,-0.0019970929,-0.0016638572,9.802207,-0.40270099,0.98174101,0.73901701,-0.081617996,-0.665995,-0.060352001,-0.38409048,-1.4631857,0.18268338
3518756589408,0.85806333,0,,-0.00041929791,-0.003284029,0.0026582413,9.7860708,-0.38558099,0.97272599,0.73901397,-0.081620999,-0.66599697,-0.060353998,-0.38413652,-1.4631924,0.18272046
3518758594432,0.86006835,0,,-0.00041929791,-0.003284029,0.0026582413,9.7860708,-0.38558099,0.97272599,0.73901397,-0.081620999,-0.66599697,-0.060353998,-0.38413652,-1.4631924,0.18272046
3518760585472,0.86205939,0,,-0.00041929791,-0.003284029,0.0026582413,9.7860708,-0.38558099,0.97272599,0.73901397,-0.081620999,-0.66599697,-0.060353998,-0.38413652,-1.4631924,0.18272046
3518762587680,0.8640616,0,,-0.0011150037,-0.0070818306,-0.00012018337,9.7124977,-0.35248399,0.98991001,0.73900598,-0.081626996,-0.66600597,-0.060353998,-0.38426398,-1.4632129,0.18284051
3518764593984,0.8660679,0,,-0.0011150037,-0.0070818306,-0.00012018337,9.7124977,-0.35248399,0.98991001,0.73900598,-0.081626996,-0.66600597,-0.060353998,-0.38426398,-1.4632129,0.18284051
3518766603712,0.86807763,0,,0.0028844357,-0.0056746241,0.0010987894,9.6845932,-0.400563,0.97432899,0.73899502,-0.081625,-0.666017,-0.060353,-0.38433289,-1.4632438,0.18291283
3518768583456,0.87005738,0,,0.0028844357,-0.0056746241,0.0010987894,9.6845932,-0.400563,0.97432899,0.73899502,-0.081625,-0.666017,-0.060353,-0.38433289,-1.4632438,0.18291283
3518770714080,0.872188,0,,0.0028844357,-0.0056746241,0.0010987894,9.6845932,-0.400563,0.97432899,0.73899502,-0.081625,-0.666017,-0.060353,-0.38433289,-1.4632438,0.18291283
3518772589152,0.87406307,0,,-0.0026578397,-0.0011406424,0.00042083378,9.6985312,-0.35821798,0.98028702,0.73899102,-0.081626996,-0.666022,-0.060353998,-0.384383,-1.4632534,0.18295957
3518774778720,0.87625264,0,,-0.0026578397,-0.0011406424,0.00042083378,9.6985312,-0.35821798,0.98028702,0.73899102,-0.081626996,-0.666022,-0.060353998,-0.384383,-1.4632534,0.18295957
3518776588224,0.87806214,0,,0.0030465595,0.00103786,0.0044755301,9.717701,-0.330403,0.99384803,0.73899198,-0.081630997,-0.66601998,-0.060353,-0.38444508,-1.4632483,0.18301614
3518778580096,0.88005402,0,,0.0030465595,0.00103786,0.0044755301,9.717701,-0.330403,0.99384803,0.73899198,-0.081630997,-0.66601998,-0.060353,-0.38444508,-1.4632483,0.18301614
3518780612672,0.88208659,0,,0.0030465595,0.00103786,0.0044755301,9.717701,-0.330403,0.99384803,0.73899198,-0.081630997,-0.66601998,-0.060353,-0.38444508,-1.4632483,0.18301614
3518782631104,0.88410502,0,,0.0045476649,-0.0018861075,0.0026385014,9.7671242,-0.42993,0.97081,0.73899597,-0.081629001,-0.66601801,-0.060341999,-0.38451778,-1.4632379,0.18310762
3518784610368,0.88608429,0,,0.0045476649,-0.0018861075,0.0026385014,9.7671242,-0.42993,0.97081,0.73899597,-0.081629001,-0.66601801,-0.060341999,-0.38451778,-1.4632379,0.18310762
3518786604384,0.8880783,0,,0.0013200972,-0.0030875397,-0.00055265853,9.7816572,-0.395138,0.98517299,0.73899198,-0.081628002,-0.66602302,-0.060338002,-0.38458753,-1.4632483,0.18318529
3518788570112,0.89004403,0,,0.0013200972,-0.0030875397,-0.00055265853,9.7816572,-0.395138,0.98517299,0.73899198,-0.081628002,-0.66602302,-0.060338002,-0.38458753,-1.4632483,0.18318529
3518790571456,0.89204538,0,,0.0013200972,-0.0030875397,-0.00055265853,9.7816572,-0.395138,0.98517299,0.73899198,-0.081628002,-0.66602302,-0.060338002,-0.38458753,-1.4632483,0.18318529
3518792598464,0.89407238,0,,-0.00031564278,-0.0028573133,0.0025281791,9.8237247,-0.37856999,0.99815601,0.73898697,-0.081630997,-0.66602701,-0.060337,-0.3846823,-1.4632579,0.18327682
3518794759456,0.89623338,0,,-0.00031564278,-0.0028573133,0.0025281791,9.8237247,-0.37856999,0.99815601,0.73898697,-0.081630997,-0.66602701,-0.060337,-0.3846823,-1.4632579,0.18327682
3518796595904,0.89806982,0,,-0.0031340179,-0.0041033388,0.0024573188,9.8450937,-0.40469101,0.98970801,0.73898298,-0.081638999,-0.666031,-0.060338002,-0.38480491,-1.4632672,0.18338724
3518798616448,0.90009037,0,,-0.0031340179,-0.0041033388,0.0024573188,9.8450937,-0.40469101,0.98970801,0.73898298,-0.081638999,-0.666031,-0.060338002,-0.38480491,-1.4632672,0.18338724
3518800606656,0.90208058,0,,-0.0031340179,-0.0041033388,0.0024573188,9.8450937,-0.40469101,0.98970801,0.73898298,-0.081638999,-0.666031,-0.060338002,-0.38480491,-1.4632672,0.18338724
3518802688416,0.90416234,0,,0.0048982492,-0.0047035227,0.0020987933,9.828783,-0.41525799,1.000654,0.73897702,-0.081643,-0.66603702,-0.060332999,-0.38496223,-1.4632807,0.18354561
3518804677696,0.90615162,0,,0.0048982492,-0.0047035227,0.0020987933,9.828783,-0.41525799,1.000654,0.73897702,-0.081643,-0.66603702,-0.060332999,-0.38496223,-1.4632807,0.18354561
3518806643488,0.90811741,0,,0.0013728585,-0.0045117808,0.0034400962,9.7549744,-0.41354299,0.991804,0.73897099,-0.081643,-0.66604501,-0.060320001,-0.38516403,-1.4632922,0.1837659
3518808620000,0.91009392,0,,0.0013728585,-0.0045117808,0.0034400962,9.7549744,-0.41354299,0.991804,0.73897099,-0.081643,-0.66604501,-0.060320001,-0.38516403,-1.4632922,0.1837659
3518810630304,0.91210422,0,,0.0013728585,-0.0045117808,0.0034400962,9.7549744,-0.41354299,0.991804,0.73897099,-0.081643,-0.66604501,-0.060320001,-0.38516403,-1.4632922,0.1837659
3518812616640,0.91409056,0,,-0.0028610659,-0.0012972334,0.00019294615,9.7783594,-0.39695001,0.995884,0.73896801,-0.081649996,-0.66604799,-0.060318001,-0.38529416,-1.4632973,0.18388814
3518814750368,0.91622429,0,,-0.0028610659,-0.0012972334,0.00019294615,9.7783594,-0.39695001,0.995884,0.73896801,-0.081649996,-0.66604799,-0.060318001,-0.38529416,-1.4632973,0.18388814
3518816582368,0.91805629,0,,-0.00046472883,-0.0013919524,0.00019491838,9.726614,-0.40248099,0.99856299,0.73896599,-0.081656002,-0.66604799,-0.060325,-0.38530318,-1.4633034,0.18387889
3518818587616,0.92006154,0,,-0.00046472883,-0.0013919524,0.00019491838,9.726614,-0.40248099,0.99856299,0.73896599,-0.081656002,-0.66604799,-0.060325,-0.38530318,-1.4633034,0.18387889
3518820581792,0.92205571,0,,-0.00046472883,-0.0013919524,0.00019491838,9.726614,-0.40248099,0.99856299,0.73896599,-0.081656002,-0.66604799,-0.060325,-0.38530318,-1.4633034,0.18387889
3518822584320,0.92405824,0,,0.0010465168,0.00092807881,0.00050998521,9.7201033,-0.41876599,0.99188203,0.73896897,-0.081657998,-0.66604501,-0.060325,-0.38531201,-1.4632929,0.183886
3518824578592,0.92605251,0,,0.0010465168,0.00092807881,0.00050998521,9.7201033,-0.41876599,0.99188203,0.73896897,-0.081657998,-0.66604501,-0.060325,-0.38531201,-1.4632929,0.183886
3518826581888,0.92805581,0,,0.0024505818,0.0019620817,0.0026684338,9.6903095,-0.41417801,0.96416599,0.73897398,-0.081657998,-0.66604,-0.060320001,-0.38533994,-1.4632777,0.18392027
3518828585600,0.93005952,0,,0.0024505818,0.0019620817,0.0026684338,9.6903095,-0.41417801,0.96416599,0.73897398,-0.081657998,-0.66604,-0.060320001,-0.38533994,-1.4632777,0.18392027
3518830602112,0.93207603,0,,0.0024505818,0.0019620817,0.0026684338,9.6903095,-0.41417801,0.96416599,0.73897398,-0.081657998,-0.66604,-0.060320001,-0.38533994,-1.4632777,0.18392027
3518832579168,0.93405309,0,,0.00020881119,0.0046930682,0.00014793411,9.7613077,-0.387995,0.99745399,0.73898101,-0.081661001,-0.66603202,-0.060316999,-0.38535392,-1.4632534,0.18393465
3518834769536,0.93624346,0,,0.00020881119,0.0046930682,0.00014793411,9.7613077,-0.387995,0.99745399,0.73898101,-0.081661001,-0.66603202,-0.060316999,-0.38535392,-1.4632534,0.18393465
3518836642816,0.93811674,0,,0.0051070254,0.0032407797,-0.001192182,9.8063202,-0.38240799,0.97927201,0.73899198,-0.081655003,-0.66602099,-0.060318999,-0.38517259,-1.4632285,0.183758
3518838603968,0.94007789,0,,0.0051070254,0.0032407797,-0.001192182,9.8063202,-0.38240799,0.97927201,0.73899198,-0.081655003,-0.66602099,-0.060318999,-0.38517259,-1.4632285,0.183758
3518840587296,0.94206122,0,,0.0051070254,0.0032407797,-0.001192182,9.8063202,-0.38240799,0.97927201,0.73899198,-0.081655003,-0.66602099,-0.060318999,-0.38517259,-1.4632285,0.183758
3518842583520,0.94405744,0,,0.0018004991,-0.0032776933,4.1486475e-05,9.8261976,-0.39905798,0.979801,0.73899299,-0.081646003,-0.66602099,-0.060316,-0.38507781,-1.463229,0.1836812
3518844610080,0.946084,0,,0.0018004991,-0.0032776933,4.1486475e-05,9.8261976,-0.39905798,0.979801,0.73899299,-0.081646003,-0.66602099,-0.060316,-0.38507781,-1.463229,0.1836812
3518846610976,0.9480849,0,,0.0013722477,-0.0049978025,-0.00035646603,9.7655754,-0.34070101,0.99503499,0.73898697,-0.081644997,-0.66602802,-0.060316,-0.38512116,-1.4632455,0.18372606
3518848576928,0.95005085,0,,0.0013722477,-0.0049978025,-0.00035646603,9.7655754,-0.34070101,0.99503499,0.73898697,-0.081644997,-0.66602802,-0.060316,-0.38512116,-1.4632455,0.18372606
3518850629632,0.95210355,0,,0.0013722477,-0.0049978025,-0.00035646603,9.7655754,-0.34070101,0.99503499,0.73898697,-0.081644997,-0.66602802,-0.060316,-0.38512116,-1.4632455,0.18372606
3518852622464,0.95409638,0,,0.00016432274,-0.0068695288,0.0032326815,9.8212318,-0.42045599,0.97772199,0.73898101,-0.081643999,-0.666035,-0.060316,-0.38514493,-1.4632651,0.18375169
3518854645728,0.95611965,0,,0.00016432274,-0.0068695288,0.0032326815,9.8212318,-0.42045599,0.97772199,0.73898101,-0.081643999,-0.666035,-0.060316,-0.38514493,-1.4632651,0.18375169
3518856600992,0.95807491,0,,0.0017461147,-0.0056056311,-0.0011625464,9.8465261,-0.377794,0.99095798,0.73896998,-0.081648,-0.66604698,-0.060311999,-0.38534123,-1.4632917,0.18394748
3518858604096,0.96007802,0,,0.0017461147,-0.0056056311,-0.0011625464,9.8465261,-0.377794,0.99095798,0.73896998,-0.081648,-0.66604698,-0.060311999,-0.38534123,-1.4632917,0.18394748
3518860607520,0.96208144,0,,0.0017461147,-0.0056056311,-0.0011625464,9.8465261,-0.377794,0.99095798,0.73896998,-0.081648,-0.66604698,-0.060311999,-0.38534123,-1.4632917,0.18394748
3518862601344,0.96407526,0,,0.0053329931,-0.0010105282,0.0021080611,9.7236824,-0.37580901,1.002756,0.73896801,-0.081641003,-0.66605002,-0.060306001,-0.38534187,-1.4633001,0.18396624
3518864596224,0.96607014,0,,0.0053329931,-0.0010105282,0.0021080611,9.7236824,-0.37580901,1.002756,0.73896801,-0.081641003,-0.66605002,-0.060306001,-0.38534187,-1.4633001,0.18396624
3518866602528,0.96807645,0,,-0.0036282254,-0.00075176564,0.0015953706,9.6975002,-0.42864901,0.95352602,0.73896897,-0.081643,-0.666049,-0.060304001,-0.38537546,-1.4632978,0.18400021
3518868634208,0.97010813,0,,-0.0036282254,-0.00075176564,0.0015953706,9.6975002,-0.42864901,0.95352602,0.73896897,-0.081643,-0.666049,-0.060304001,-0.38537546,-1.4632978,0.18400021
3518870687040,0.97216096,0,,-0.0036282254,-0.00075176564,0.0015953706,9.6975002,-0.42864901,0.95352602,0.73896897,-0.081643,-0.666049,-0.060304001,-0.38537546,-1.4632978,0.18400021
3518872592896,0.97406682,0,,-0.00057583648,-0.0002150071,0.0017455736,9.7238474,-0.42920899,0.976408,0.738967,-0.081655003,-0.666049,-0.060307,-0.38550032,-1.4632938,0.18410304
3518874743232,0.97621715,0,,-0.00057583648,-0.0002150071,0.0017455736,9.7238474,-0.42920899,0.976408,0.738967,-0.081655003,-0.666049,-0.060307,-0.38550032,-1.4632938,0.18410304
3518876596224,0.97807014,0,,0.00051906092,-0.0010118895,0.0015798197,9.7455378,-0.37283,1.006043,0.73896998,-0.081657998,-0.66604602,-0.060306001,-0.38553764,-1.4632856,0.18413943
3518878623232,0.98009715,0,,0.00051906092,-0.0010118895,0.0015798197,9.7455378,-0.37283,1.006043,0.73896998,-0.081657998,-0.66604602,-0.060306001,-0.38553764,-1.4632856,0.18413943
3518880606016,0.98207994,0,,0.00051906092,-0.0010118895,0.0015798197,9.7455378,-0.37283,1.006043,0.73896998,-0.081657998,-0.66604602,-0.060306001,-0.38553764,-1.4632856,0.18413943
3518882600512,0.98407443,0,,-0.0015436041,-0.00076857321,0.00098440063,9.7302103,-0.41062501,0.980268,0.73897201,-0.081660002,-0.666044,-0.060307,-0.38554343,-1.4632795,0.18414011
3518884585312,0.98605923,0,,-0.0015436041,-0.00076857321,0.00098440063,9.7302103,-0.41062501,0.980268,0.73897201,-0.081660002,-0.666044,-0.060307,-0.38554343,-1.4632795,0.18414011
3518886594560,0.98806848,0,,0.00067961374,-0.0037369419,0.0012572305,9.7914534,-0.41305199,0.98610801,0.73896897,-0.081665002,-0.66604602,-0.060307,-0.3856231,-1.4632833,0.18421302
3518888586240,0.99006016,0,,0.00067961374,-0.0037369419,0.0012572305,9.7914534,-0.41305199,0.98610801,0.73896897,-0.081665002,-0.66604602,-0.060307,-0.3856231,-1.4632833,0.18421302
3518890595456,0.99206938,0,,0.00067961374,-0.0037369419,0.0012572305,9.7914534,-0.41305199,0.98610801,0.73896897,-0.081665002,-0.66604602,-0.060307,-0.3856231,-1.4632833,0.18421302
3518892638176,0.9941121,0,,0.0031076635,-0.0031579814,-0.0024960303,9.8415985,-0.409343,1.008397,0.73896599,-0.081660002,-0.66605097,-0.060302999,-0.38563132,-1.4632944,0.18423309
3518894778112,0.99625203,0,,0.0031076635,-0.0031579814,-0.0024960303,9.8415985,-0.409343,1.008397,0.73896599,-0.081660002,-0.66605097,-0.060302999,-0.38563132,-1.4632944,0.18423309
3518896586176,0.9980601,0,,-0.0049684115,-0.0048018547,-0.0040727257,9.8520308,-0.39911699,1.000681,0.73896098,-0.081657998,-0.66605502,-0.060314,-0.38550662,-1.4633127,0.1840957
3518898582976,1.0000569,0,,-0.0049684115,-0.0048018547,-0.0040727257,9.8520308,-0.39911699,1.000681,0.73896098,-0.081657998,-0.66605502,-0.060314,-0.38550662,-1.4633127,0.1840957
3518900592096,1.002066,0,,-0.0049684115,-0.0048018547,-0.0040727257,9.8520308,-0.39911699,1.000681,0.73896098,-0.081657998,-0.66605502,-0.060314,-0.38550662,-1.4633127,0.1840957
3518902690976,1.0041649,0,,-0.00080478875,0.00011313224,3.1031955e-05,9.8102674,-0.42129999,0.97596902,0.738958,-0.081657998,-0.66605699,-0.060323,-0.3854168,-1.4633222,0.18399246
3518904669248,1.0061432,0,,-0.00080478875,0.00011313224,3.1031955e-05,9.8102674,-0.42129999,0.97596902,0.738958,-0.081657998,-0.66605699,-0.060323,-0.3854168,-1.4633222,0.18399246
3518906629792,1.0081037,0,,-0.0046733806,-0.0018100635,2.6005406e-06,9.8130455,-0.41773501,0.98852903,0.738958,-0.081666999,-0.66605598,-0.060329001,-0.38545788,-1.4633205,0.18401315
3518908631616,1.0101055,0,,-0.0046733806,-0.0018100635,2.6005406e-06,9.8130455,-0.41773501,0.98852903,0.738958,-0.081666999,-0.66605598,-0.060329001,-0.38545788,-1.4633205,0.18401315
3518910649152,1.0121231,0,,-0.0046733806,-0.0018100635,2.6005406e-06,9.8130455,-0.41773501,0.98852903,0.738958,-0.081666999,-0.66605598,-0.060329001,-0.38545788,-1.4633205,0.18401315
3518912586016,1.0140599,0,,0.0034799422,-0.0079618431,0.00021785199,9.7957468,-0.39676899,1.006397,0.73895103,-0.081671,-0.66606301,-0.060329001,-0.38556481,-1.46334,0.18411413
3518914752320,1.0162262,0,,0.0034799422,-0.0079618431,0.00021785199,9.7957468,-0.39676899,1.006397,0.73895103,-0.081671,-0.66606301,-0.060329001,-0.38556481,-1.46334,0.18411413
3518916612032,1.018086,0,,0.0012610178,-0.0075266274,0.0010309835,9.6944723,-0.421092,0.98171502,0.73894,-0.081666999,-0.666076,-0.060322002,-0.38568754,-1.4633695,0.18425323
3518918649984,1.0201239,0,,0.0012610178,-0.0075266274,0.0010309835,9.6944723,-0.421092,0.98171502,0.73894,-0.081666999,-0.666076,-0.060322002,-0.38568754,-1.4633695,0.18425323
3518920584512,1.0220584,0,,0.0012610178,-0.0075266274,0.0010309835,9.6944723,-0.421092,0.98171502,0.73894,-0.081666999,-0.666076,-0.060322002,-0.38568754,-1.4633695,0.18425323
3518922597088,1.024071,0,,-0.0025491929,-0.0035380792,0.00019671606,9.652936,-0.381008,0.96647602,0.73893303,-0.081674002,-0.66608399,-0.060323,-0.38582613,-1.4633873,0.18438111
3518924584768,1.0260587,0,,-0.0025491929,-0.0035380792,0.00019671606,9.652936,-0.381008,0.96647602,0.73893303,-0.081674002,-0.66608399,-0.060323,-0.38582613,-1.4633873,0.18438111
3518926628544,1.0281025,0,,0.0045575607,0.001296797,-0.0012016592,9.729804,-0.35482001,0.99369001,0.73893398,-0.081670001,-0.66608202,-0.060322002,-0.38576854,-1.463385,0.18432878
3518928609088,1.030083,0,,0.0045575607,0.001296797,-0.0012016592,9.729804,-0.35482001,0.99369001,0.73893398,-0.081670001,-0.66608202,-0.060322002,-0.38576854,-1.463385,0.18432878
3518930613088,1.032087,0,,0.0045575607,0.001296797,-0.0012016592,9.729804,-0.35482001,0.99369001,0.73893398,-0.081670001,-0.66608202,-0.060322002,-0.38576854,-1.463385,0.18432878
3518932644448,1.0341184,0,,0.00079787728,-0.0016195084,0.0012131435,9.7566042,-0.36689901,1.018743,0.73893601,-0.081662998,-0.66608202,-0.060322002,-0.38566714,-1.4633841,0.18423832
3518934792256,1.0362662,0,,0.00079787728,-0.0016195084,0.0012131435,9.7566042,-0.36689901,1.018743,0.73893601,-0.081662998,-0.66608202,-0.060322002,-0.38566714,-1.4633841,0.18423832
3518936658912,1.0381328,0,,0.0047225118,0.0022083301,-0.00077321579,9.6707668,-0.368177,0.97982103,0.73894101,-0.081657,-0.66607702,-0.060320001,-0.38558764,-1.4633739,0.18417056
3518938590496,1.0400644,0,,0.0047225118,0.0022083301,-0.00077321579,9.6707668,-0.368177,0.97982103,0.73894101,-0.081657,-0.66607702,-0.060320001,-0.38558764,-1.4633739,0.18417056
3518940575328,1.0420492,0,,0.0047225118,0.0022083301,-0.00077321579,9.6707668,-0.368177,0.97982103,0.73894101,-0.081657,-0.66607702,-0.060320001,-0.38558764,-1.4633739,0.18417056
3518942584704,1.0440586,0,,0.0032186489,-0.00020053834,0.00051497684,9.7723827,-0.404852,0.94907302,0.73894602,-0.081647001,-0.66607302,-0.060314,-0.38547988,-1.4633624,0.1840846
3518944585568,1.0460595,0,,0.0032186489,-0.00020053834,0.00051497684,9.7723827,-0.404852,0.94907302,0.73894602,-0.081647001,-0.66607302,-0.060314,-0.38547988,-1.4633624,0.1840846
3518946572320,1.0480462,0,,-0.00011707668,-0.0022239335,0.0016472069,9.9548788,-0.38582098,0.99820399,0.73894399,-0.081649996,-0.66607499,-0.060314,-0.38553931,-1.4633668,0.18414106
3518948562784,1.0500367,0,,-0.00011707668,-0.0022239335,0.0016472069,9.9548788,-0.38582098,0.99820399,0.73894399,-0.081649996,-0.66607499,-0.060314,-0.38553931,-1.4633668,0.18414106
3518950568096,1.052042,0,,-0.00011707668,-0.0022239335,0.0016472069,9.9548788,-0.38582098,0.99820399,0.73894399,-0.081649996,-0.66607499,-0.060314,-0.38553931,-1.4633668,0.18414106
3518952593408,1.0540673,0,,0.00012655382,0.00031176816,-0.0027284208,9.9318867,-0.43282899,1.006705,0.73894298,-0.081648,-0.666076,-0.060318001,-0.38548068,-1.4633727,0.18407859
3518954750688,1.0562246,0,,0.00012655382,0.00031176816,-0.0027284208,9.9318867,-0.43282899,1.006705,0.73894298,-0.081648,-0.666076,-0.060318001,-0.38548068,-1.4633727,0.18407859
3518956563840,1.0580378,0,,0.0092141868,0.0053229922,-0.0028656734,9.8287592,-0.45137799,0.948062,0.73895001,-0.081634998,-0.66606998,-0.060316999,-0.38525658,-1.4633572,0.18387516
3518958571712,1.0600456,0,,0.0092141868,0.0053229922,-0.0028656734,9.8287592,-0.45137799,0.948062,0.73895001,-0.081634998,-0.66606998,-0.060316999,-0.38525658,-1.4633572,0.18387516
3518960557632,1.0620316,0,,0.0092141868,0.0053229922,-0.0028656734,9.8287592,-0.45137799,0.948062,0.73895001,-0.081634998,-0.66606998,-0.060316999,-0.38525658,-1.4633572,0.18387516
3518962563264,1.0640372,0,,0.0029722607,0.0014867761,-0.0025705208,9.8006916,-0.386096,0.96091998,0.738958,-0.08162,-0.66606301,-0.060311999,-0.38507295,-1.4633415,0.18371927
3518964556672,1.0660306,0,,0.0029722607,0.0014867761,-0.0025705208,9.8006916,-0.386096,0.96091998,0.738958,-0.08162,-0.66606301,-0.060311999,-0.38507295,-1.4633415,0.18371927
3518966589056,1.068063,0,,-0.00010501646,0.0016431926,-0.0015713897,9.7802496,-0.31253901,1.025188,0.73896098,-0.081615999,-0.66605997,-0.060318001,-0.38492032,-1.4633378,0.18356237
3518968582016,1.0700559,0,,-0.00010501646,0.0016431926,-0.0015713897,9.7802496,-0.31253901,1.025188,0.73896098,-0.081615999,-0.66605997,-0.060318001,-0.38492032,-1.4633378,0.18356237
3518970686848,1.0721608,0,,-0.00010501646,0.0016431926,-0.0015713897,9.7802496,-0.31253901,1.025188,0.73896098,-0.081615999,-0.66605997,-0.060318001,-0.38492032,-1.4633378,0.18356237
3518972622112,1.074096,0,,0.00015906931,-0.00096570811,0.002167664,9.6671801,-0.39268401,0.99205798,0.73896497,-0.081614003,-0.66605598,-0.060320999,-0.38483164,-1.4633299,0.18347294
3518974760704,1.0762346,0,,0.00015906931,-0.00096570811,0.002167664,9.6671801,-0.39268401,0.99205798,0.73896497,-0.081614003,-0.66605598,-0.060320999,-0.38483164,-1.4633299,0.18347294
3518976594976,1.0780689,0,,-0.0014739655,0.0020952329,0.0023945743,9.6300411,-0.413975,0.95922101,0.73896801,-0.081619002,-0.66605198,-0.060322002,-0.38485015,-1.4633185,0.18348419
3518978589504,1.0800634,0,,-0.0014739655,0.0020952329,0.0023945743,9.6300411,-0.413975,0.95922101,0.73896801,-0.081619002,-0.66605198,-0.060322002,-0.38485015,-1.4633185,0.18348419
3518980581600,1.0820555,0,,-0.0014739655,0.0020952329,0.0023945743,9.6300411,-0.413975,0.95922101,0.73896801,-0.081619002,-0.66605198,-0.060322002,-0.38485015,-1.4633185,0.18348419
3518982595488,1.0840694,0,,-0.00060402353,0.002529401,0.00033499849,9.6962948,-0.39145401,0.98682797,0.73897302,-0.081625,-0.66604501,-0.060322002,-0.38488746,-1.4632989,0.18351202
3518984578464,1.0860524,0,,-0.00060402353,0.002529401,0.00033499849,9.6962948,-0.39145401,0.98682797,0.73897302,-0.081625,-0.66604501,-0.060322002,-0.38488746,-1.4632989,0.18351202
3518986584800,1.0880587,0,,0.0074448242,0.00028871238,-0.00033859388,9.734664,-0.40555799,1.0157909,0.738976,-0.081616998,-0.66604197,-0.060320001,-0.38478407,-1.4632922,0.18342221
3518988575776,1.0900497,0,,0.0074448242,0.00028871238,-0.00033859388,9.734664,-0.40555799,1.0157909,0.738976,-0.081616998,-0.66604197,-0.060320001,-0.38478407,-1.4632922,0.18342221
3518990597760,1.0920717,0,,0.0074448242,0.00028871238,-0.00033859388,9.734664,-0.40555799,1.0157909,0.738976,-0.081616998,-0.66604197,-0.060320001,-0.38478407,-1.4632922,0.18342221
3518992579040,1.094053,0,,-8.1140353e-05,0.0015731525,-0.0011974181,9.7263002,-0.45292199,1.005517,0.73898202,-0.081609003,-0.66603702,-0.060318999,-0.38464602,-1.4632812,0.1832985
3518994767744,1.0962417,0,,-8.1140353e-05,0.0015731525,-0.0011974181,9.7263002,-0.45292199,1.005517,0.73898202,-0.081609003,-0.66603702,-0.060318999,-0.38464602,-1.4632812,0.1832985
3518996572480,1.0980464,0,,-0.00093682289,0.00011925835,0.0017646675,9.7658815,-0.40970901,1.011977,0.73898602,-0.081611,-0.66603297,-0.060318999,-0.38464825,-1.4632677,0.18329706
3518998579744,1.1000537,0,,-0.00093682289,0.00011925835,0.0017646675,9.7658815,-0.40970901,1.011977,0.73898602,-0.081611,-0.66603297,-0.060318999,-0.38464825,-1.4632677,0.18329706
3519000570368,1.1020443,0,,-0.00093682289,0.00011925835,0.0017646675,9.7658815,-0.40970901,1.011977,0.73898602,-0.081611,-0.66603297,-0.060318999,-0.38464825,-1.4632677,0.18329706
3519002724416,1.1041983,0,,-0.00083238244,-0.00052853806,0.0018008307,9.7304182,-0.35488799,1.029575,0.73898798,-0.081616998,-0.66602898,-0.060320001,-0.38470088,-1.4632595,0.18333948
3519004654240,1.1061282,0,,-0.00083238244,-0.00052853806,0.0018008307,9.7304182,-0.35488799,1.029575,0.73898798,-0.081616998,-0.66602898,-0.060320001,-0.38470088,-1.4632595,0.18333948
3519006644192,1.1081181,0,,-0.00037679913,0.0035706119,0.0029804637,9.7704802,-0.444736,0.97619998,0.738994,-0.081616998,-0.66602302,-0.060320001,-0.38464984,-1.4632434,0.18328945
3519008633728,1.1101076,0,,-0.00037679913,0.0035706119,0.0029804637,9.7704802,-0.444736,0.97619998,0.738994,-0.081616998,-0.66602302,-0.060320001,-0.38464984,-1.4632434,0.18328945
3519010608384,1.1120823,0,,-0.00037679913,0.0035706119,0.0029804637,9.7704802,-0.444736,0.97619998,0.738994,-0.081616998,-0.66602302,-0.060320001,-0.38464984,-1.4632434,0.18328945
3519012606080,1.11408,0,,-0.0016465087,0.0044633654,0.0027318941,9.9476089,-0.48528901,0.983051,0.739003,-0.081626996,-0.66601199,-0.060318001,-0.38473686,-1.4632111,0.18336358
3519014792128,1.116266,0,,-0.0016465087,0.0044633654,0.0027318941,9.9476089,-0.48528901,0.983051,0.739003,-0.081626996,-0.66601199,-0.060318001,-0.38473686,-1.4632111,0.18336358
3519016584608,1.1180585,0,,-0.00044645522,-0.0012563927,-0.00046232028,10.042166,-0.47256199,1.009998,0.73900598,-0.081637003,-0.666008,-0.060316,-0.3848622,-1.4631978,0.18347788
3519018563680,1.1200376,0,,-0.00044645522,-0.0012563927,-0.00046232028,10.042166,-0.47256199,1.009998,0.73900598,-0.081637003,-0.666008,-0.060316,-0.3848622,-1.4631978,0.18347788
3519020635136,1.1221091,0,,-0.00044645522,-0.0012563927,-0.00046232028,10.042166,-0.47256199,1.009998,0.73900598,-0.081637003,-0.666008,-0.060316,-0.3848622,-1.4631978,0.18347788
3519022607040,1.124081,0,,0.0013707815,-0.0011887263,-0.0071457621,9.9216137,-0.45160499,0.97326499,0.73900497,-0.081632003,-0.666008,-0.060322002,-0.38473187,-1.4632024,0.18334612
3519024591968,1.1260659,0,,0.0013707815,-0.0011887263,-0.0071457621,9.9216137,-0.45160499,0.97326499,0.73900497,-0.081632003,-0.666008,-0.060322002,-0.38473187,-1.4632024,0.18334612
3519026592736,1.1280667,0,,0.0010742152,-0.0024144187,-0.0058716018,9.7167301,-0.3321,0.96413898,0.73900199,-0.081620999,-0.66601199,-0.060332999,-0.38447085,-1.4632201,0.18308568
3519028587264,1.1300612,0,,0.0010742152,-0.0024144187,-0.0058716018,9.7167301,-0.3321,0.96413898,0.73900199,-0.081620999,-0.66601199,-0.060332999,-0.38447085,-1.4632201,0.18308568
3519030589504,1.1320634,0,,0.0010742152,-0.0024144187,-0.0058716018,9.7167301,-0.3321,0.96413898,0.73900199,-0.081620999,-0.66601199,-0.060332999,-0.38447085,-1.4632201,0.18308568
3519032584064,1.134058,0,,-0.0041998381,-0.0018539411,-0.0064405092,9.6122351,-0.26570201,0.97422802,0.738998,-0.081612997,-0.66601598,-0.060350999,-0.38418106,-1.4632402,0.1827818
3519034791168,1.1362651,0,,-0.0041998381,-0.0018539411,-0.0064405092,9.6122351,-0.26570201,0.97422802,0.738998,-0.081612997,-0.66601598,-0.060350999,-0.38418106,-1.4632402,0.1827818
3519036738048,1.138212,0,,0.0025783925,-0.0028500006,-0.0016203287,9.627347,-0.234798,0.98303998,0.738994,-0.081602998,-0.66601998,-0.060368001,-0.38387506,-1.4632639,0.18246513
3519038589600,1.1400635,0,,0.0025783925,-0.0028500006,-0.0016203287,9.627347,-0.234798,0.98303998,0.738994,-0.081602998,-0.66601998,-0.060368001,-0.38387506,-1.4632639,0.18246513
3519040580416,1.1420543,0,,0.0025783925,-0.0028500006,-0.0016203287,9.627347,-0.234798,0.98303998,0.738994,-0.081602998,-0.66601998,-0.060368001,-0.38387506,-1.4632639,0.18246513
3519042611872,1.1440858,0,,0.0046197122,0.0011350225,0.0063622835,9.545476,-0.298498,0.97803098,0.73899597,-0.081594996,-0.66601998,-0.060366001,-0.38378628,-1.4632639,0.18239121
3519044579360,1.1460533,0,,0.0046197122,0.0011350225,0.0063622835,9.545476,-0.298498,0.97803098,0.73899597,-0.081594996,-0.66601998,-0.060366001,-0.38378628,-1.4632639,0.18239121
3519046578112,1.148052,0,,0.0046197122,0.0011350225,0.0063622835,9.545476,-0.298498,0.97803098,0.73899597,-0.081594996,-0.66601998,-0.060366001,-0.38378628,-1.4632639,0.18239121
3519048573536,1.1500475,0,,0.0046197122,0.0011350225,0.0063622835,9.545476,-0.298498,0.97803098,0.73899597,-0.081594996,-0.66601998,-0.060366001,-0.38378628,-1.4632639,0.18239121
3519050571904,1.1520458,0,,0.0046197122,0.0011350225,0.0063622835,9.545476,-0.298498,0.97803098,0.73899597,-0.081594996,-0.66601998,-0.060366001,-0.38378628,-1.4632639,0.18239121
3519052595424,1.1540693,0,,-0.001913195,-0.0041022569,0.004423083,9.7362108,-0.43116301,0.96144003,0.73898697,-0.081612997,-0.66602898,-0.060348999,-0.38429581,-1.463274,0.18289906
3519054771616,1.1562455,0,,-0.001913195,-0.0041022569,0.004423083,9.7362108,-0.43116301,0.96144003,0.73898697,-0.081612997,-0.66602898,-0.060348999,-0.38429581,-1.463274,0.18289906
3519056582304,1.1580562,0,,0.0033253059,-0.0021251304,-0.00052139967,9.9035053,-0.458538,0.99324697,0.73898202,-0.081617996,-0.66603398,-0.060346,-0.38443573,-1.463284,0.18303721
3519058578880,1.1600528,0,,0.0033253059,-0.0021251304,-0.00052139967,9.9035053,-0.458538,0.99324697,0.73898202,-0.081617996,-0.66603398,-0.060346,-0.38443573,-1.463284,0.18303721
3519060574208,1.1620481,0,,0.0033253059,-0.0021251304,-0.00052139967,9.9035053,-0.458538,0.99324697,0.73898202,-0.081617996,-0.66603398,-0.060346,-0.38443573,-1.463284,0.18303721
3519062580992,1.1640549,0,,0.0033253059,-0.0021251304,-0.00052139967,9.9035053,-0.458538,0.99324697,0.73898202,-0.081617996,-0.66603398,-0.060346,-0.38443573,-1.463284,0.18303721
3519064575584,1.1660495,0,,0.0033253059,-0.0021251304,-0.00052139967,9.9035053,-0.458538,0.99324697,0.73898202,-0.081617996,-0.66603398,-0.060346,-0.38443573,-1.463284,0.18303721
3519066571616,1.1680455,0,,0.0020543921,-0.0024144884,-0.0025383197,9.8994274,-0.399443,1.018092,0.73898,-0.081605002,-0.66603798,-0.060339,-0.38436798,-1.4632956,0.18299803
3519068568672,1.1700426,0,,0.0020543921,-0.0024144884,-0.0025383197,9.8994274,-0.399443,1.018092,0.73898,-0.081605002,-0.66603798,-0.060339,-0.38436798,-1.4632956,0.18299803
3519070627968,1.1721019,0,,0.0020543921,-0.0024144884,-0.0025383197,9.8994274,-0.399443,1.018092,0.73898,-0.081605002,-0.66603798,-0.060339,-0.38436798,-1.4632956,0.18299803
3519072581824,1.1740557,0,,-0.0017171596,-0.0012681038,-0.00055740579,9.8616047,-0.41011301,1.016385,0.73897797,-0.081602,-0.66604,-0.060345002,-0.38427953,-1.4633038,0.18290391
3519074757440,1.1762314,0,,-0.0017171596,-0.0012681038,-0.00055740579,9.8616047,-0.41011301,1.016385,0.73897797,-0.081602,-0.66604,-0.060345002,-0.38427953,-1.4633038,0.18290391
3519076562016,1.1780359,0,,0.00028951523,0.00050056044,0.0018904011,9.8528347,-0.427854,0.99805999,0.73898101,-0.081606001,-0.66603702,-0.060346998,-0.38428286,-1.463295,0.18289961
3519078557280,1.1800312,0,,0.00028951523,0.00050056044,0.0018904011,9.8528347,-0.427854,0.99805999,0.73898101,-0.081606001,-0.66603702,-0.060346998,-0.38428286,-1.463295,0.18289961
3519080583936,1.1820579,0,,0.00028951523,0.00050056044,0.0018904011,9.8528347,-0.427854,0.99805999,0.73898101,-0.081606001,-0.66603702,-0.060346998,-0.38428286,-1.463295,0.18289961
3519082587488,1.1840614,0,,-0.0014222513,0.00094174474,0.0010101966,9.7901659,-0.417184,1.0009429,0.738985,-0.081611,-0.666031,-0.060348,-0.38429831,-1.4632807,0.18290659
3519084580704,1.1860546,0,,-0.0014222513,0.00094174474,0.0010101966,9.7901659,-0.417184,1.0009429,0.738985,-0.081611,-0.666031,-0.060348,-0.38429831,-1.4632807,0.18290659
3519086580576,1.1880545,0,,0.0035593894,-0.0044578851,-0.0007157421,9.8066616,-0.41301799,1.021209,0.738985,-0.081611998,-0.666031,-0.060348,-0.38431771,-1.46328,0.18292375
3519088579136,1.1900531,0,,0.0035593894,-0.0044578851,-0.0007157421,9.8066616,-0.41301799,1.021209,0.738985,-0.081611998,-0.666031,-0.060348,-0.38431771,-1.46328,0.18292375
3519090581088,1.192055,0,,0.0035593894,-0.0044578851,-0.0007157421,9.8066616,-0.41301799,1.021209,0.738985,-0.081611998,-0.666031,-0.060348,-0.38431771,-1.46328,0.18292375
3519092606272,1.1940802,0,,0.007895573,-0.0027994208,-0.00084536769,9.7244921,-0.46137699,0.98812002,0.73898202,-0.081601001,-0.66603601,-0.060339,-0.38430836,-1.4632898,0.1829432
3519094811328,1.1962852,0,,0.007895573,-0.0027994208,-0.00084536769,9.7244921,-0.46137699,0.98812002,0.73898202,-0.081601001,-0.66603601,-0.060339,-0.38430836,-1.4632898,0.1829432
3519096578592,1.1980525,0,,0.0039964899,-0.0013574997,-0.0022910413,9.5522375,-0.396144,0.97336298,0.73898202,-0.081588998,-0.66603899,-0.060332,-0.38423283,-1.4632956,0.18289505
3519098578368,1.2000523,0,,0.0039964899,-0.0013574997,-0.0022910413,9.5522375,-0.396144,0.97336298,0.73898202,-0.081588998,-0.66603899,-0.060332,-0.38423283,-1.4632956,0.18289505
3519100574080,1.202048,0,,0.0039964899,-0.0013574997,-0.0022910413,9.5522375,-0.396144,0.97336298,0.73898202,-0.081588998,-0.66603899,-0.060332,-0.38423283,-1.4632956,0.18289505
3519102591008,1.2040649,0,,0.0013908529,0.0014705446,-0.0013343392,9.4931545,-0.288427,0.96485001,0.73898399,-0.081583001,-0.66603702,-0.060332999,-0.38412503,-1.4632944,0.18279388
3519104590624,1.2060645,0,,0.0013908529,0.0014705446,-0.0013343392,9.4931545,-0.288427,0.96485001,0.73898399,-0.081583001,-0.66603702,-0.060332999,-0.38412503,-1.4632944,0.18279388
3519106576480,1.2080504,0,,0.0060197453,0.0014256548,-0.0017840581,9.6360397,-0.277475,0.99165303,0.73899001,-0.081569001,-0.66603202,-0.060338002,-0.38384527,-1.4632877,0.18252637
3519108579680,1.2100536,0,,0.0060197453,0.0014256548,-0.0017840581,9.6360397,-0.277475,0.99165303,0.73899001,-0.081569001,-0.66603202,-0.060338002,-0.38384527,-1.4632877,0.18252637
3519110577056,1.212051,0,,0.0060197453,0.0014256548,-0.0017840581,9.6360397,-0.277475,0.99165303,0.73899001,-0.081569001,-0.66603202,-0.060338002,-0.38384527,-1.4632877,0.18252637
3519112566880,1.2140408,0,,0.0010760478,-0.0021312914,0.0035405052,9.7822418,-0.37571499,0.99648201,0.73899102,-0.081556998,-0.66603202,-0.060337,-0.38368944,-1.4632898,0.1823904
3519114759776,1.2162337,0,,0.0010760478,-0.0021312914,0.0035405052,9.7822418,-0.37571499,0.99648201,0.73899102,-0.081556998,-0.66603202,-0.060337,-0.38368944,-1.4632898,0.1823904
3519116562336,1.2180363,0,,-8.8313662e-06,0.0018535221,0.0050538101,9.8686724,-0.42093,0.97286898,0.73899198,-0.081565,-0.66602999,-0.060332999,-0.38382799,-1.46328,0.18252366
3519118570752,1.2200447,0,,-8.8313662e-06,0.0018535221,0.0050538101,9.8686724,-0.42093,0.97286898,0.73899198,-0.081565,-0.66602999,-0.060332999,-0.38382799,-1.46328,0.18252366
3519120572704,1.2220466,0,,-8.8313662e-06,0.0018535221,0.0050538101,9.8686724,-0.42093,0.97286898,0.73899198,-0.081565,-0.66602999,-0.060332999,-0.38382799,-1.46328,0.18252366
3519122569600,1.2240435,0,,0.0021861645,-5.019567e-05,0.0039174439,9.8863602,-0.39962101,0.95982498,0.73899698,-0.081569001,-0.66602498,-0.060323,-0.38396075,-1.4632616,0.18266386
3519124557696,1.2260316,0,,0.0021861645,-5.019567e-05,0.0039174439,9.8863602,-0.39962101,0.95982498,0.73899698,-0.081569001,-0.66602498,-0.060323,-0.38396075,-1.4632616,0.18266386
3519126563648,1.2280376,0,,0.001130345,0.003124663,-0.00073073447,9.9645557,-0.416107,0.98073399,0.73899901,-0.081570998,-0.66602302,-0.060320999,-0.38400426,-1.4632551,0.1827075
3519128556992,1.2300309,0,,0.001130345,0.003124663,-0.00073073447,9.9645557,-0.416107,0.98073399,0.73899901,-0.081570998,-0.66602302,-0.060320999,-0.38400426,-1.4632551,0.1827075
3519130557792,1.2320317,0,,0.001130345,0.003124663,-0.00073073447,9.9645557,-0.416107,0.98073399,0.73899901,-0.081570998,-0.66602302,-0.060320999,-0.38400426,-1.4632551,0.1827075
3519132573952,1.2340479,0,,-0.00072275832,0.00092731087,-0.0020145114,9.9709568,-0.45266101,0.98910701,0.73900497,-0.081569001,-0.66601598,-0.060327001,-0.38386834,-1.4632402,0.18256592
3519134747968,1.2362219,0,,-0.00072275832,0.00092731087,-0.0020145114,9.9709568,-0.45266101,0.98910701,0.73900497,-0.081569001,-0.66601598,-0.060327001,-0.38386834,-1.4632402,0.18256592
3519136610080,1.238084,0,,-0.0019987685,-0.0040672803,-0.0022404092,9.815918,-0.392205,0.98381001,0.73900098,-0.081573002,-0.66601998,-0.060336001,-0.38383921,-1.4632546,0.18251833
3519138557728,1.2400316,0,,-0.0019987685,-0.0040672803,-0.0022404092,9.815918,-0.392205,0.98381001,0.73900098,-0.081573002,-0.66601998,-0.060336001,-0.38383921,-1.4632546,0.18251833
3519140581920,1.2420558,0,,-0.0019987685,-0.0040672803,-0.0022404092,9.815918,-0.392205,0.98381001,0.73900098,-0.081573002,-0.66601998,-0.060336001,-0.38383921,-1.4632546,0.18251833
3519142584192,1.2440581,0,,-0.0010034073,-0.0058056111,-0.0028766691,9.6297827,-0.31689599,0.948524,0.738994,-0.081573002,-0.66602701,-0.060343001,-0.38380739,-1.4632751,0.18247647
3519144582368,1.2460563,0,,-0.0010034073,-0.0058056111,-0.0028766691,9.6297827,-0.31689599,0.948524,0.738994,-0.081573002,-0.66602701,-0.060343001,-0.38380739,-1.4632751,0.18247647
3519146578752,1.2480527,0,,0.0014643487,0.00074490651,-0.0011237477,9.6148052,-0.28215501,0.96374798,0.738989,-0.081568003,-0.666031,-0.060352001,-0.38365532,-1.4632938,0.18231846
3519148576128,1.25005,0,,0.0014643487,0.00074490651,-0.0011237477,9.6148052,-0.28215501,0.96374798,0.738989,-0.081568003,-0.666031,-0.060352001,-0.38365532,-1.4632938,0.18231846
3519150580896,1.2520548,0,,0.0014643487,0.00074490651,-0.0011237477,9.6148052,-0.28215501,0.96374798,0.738989,-0.081568003,-0.666031,-0.060352001,-0.38365532,-1.4632938,0.18231846
3519152591136,1.2540651,0,,0.0016895485,0.0033257597,0.00050225339,9.6683044,-0.355739,0.99555302,0.73899502,-0.081560001,-0.666026,-0.060357001,-0.38345761,-1.4632828,0.18212508
3519154820960,1.2562949,0,,0.0016895485,0.0033257597,0.00050225339,9.6683044,-0.355739,0.99555302,0.73899502,-0.081560001,-0.666026,-0.060357001,-0.38345761,-1.4632828,0.18212508
3519156572096,1.258046,0,,0.001787095,-0.00024685936,0.0013508848,9.7311153,-0.42537799,0.99421698,0.73900098,-0.081559002,-0.66601998,-0.060355,-0.38341667,-1.4632672,0.18208865
3519158591744,1.2600657,0,,0.001787095,-0.00024685936,0.0013508848,9.7311153,-0.42537799,0.99421698,0.73900098,-0.081559002,-0.66601998,-0.060355,-0.38341667,-1.4632672,0.18208865
3519160573024,1.2620469,0,,0.001787095,-0.00024685936,0.0013508848,9.7311153,-0.42537799,0.99421698,0.73900098,-0.081559002,-0.66601998,-0.060355,-0.38341667,-1.4632672,0.18208865
3519162569920,1.2640438,0,,0.004319079,-0.0013099219,0.00081833251,9.7290115,-0.43669799,0.97947001,0.73900199,-0.081556,-0.66601902,-0.060350999,-0.38342915,-1.4632623,0.18211057
3519164564608,1.2660385,0,,0.004319079,-0.0013099219,0.00081833251,9.7290115,-0.43669799,0.97947001,0.73900199,-0.081556,-0.66601902,-0.060350999,-0.38342915,-1.4632623,0.18211057
3519166567936,1.2680419,0,,0.0034612148,0.00042352161,0.0042676267,9.7395048,-0.38584101,1.01024,0.73900402,-0.081555001,-0.666017,-0.060339,-0.38353618,-1.4632539,0.18223619
3519168577216,1.2700511,0,,0.0034612148,0.00042352161,0.0042676267,9.7395048,-0.38584101,1.01024,0.73900402,-0.081555001,-0.666017,-0.060339,-0.38353618,-1.4632539,0.18223619
3519170617536,1.2720915,0,,0.0034612148,0.00042352161,0.0042676267,9.7395048,-0.38584101,1.01024,0.73900402,-0.081555001,-0.666017,-0.060339,-0.38353618,-1.4632539,0.18223619
3519172588960,1.2740629,0,,0.0055564999,0.0026094942,0.00115745,9.7608213,-0.36785799,1.005407,0.73901099,-0.081551,-0.66601199,-0.06033,-0.38354779,-1.4632367,0.18226686
3519174755392,1.2762293,0,,0.0055564999,0.0026094942,0.00115745,9.7608213,-0.36785799,1.005407,0.73901099,-0.081551,-0.66601199,-0.06033,-0.38354779,-1.4632367,0.18226686
3519176562048,1.278036,0,,0.0038889949,0.00080953608,0.0012304222,9.8079262,-0.43186399,1.001228,0.73901701,-0.081542999,-0.66600698,-0.060323,-0.38347602,-1.4632218,0.18221633
3519178564768,1.2800387,0,,0.0038889949,0.00080953608,0.0012304222,9.8079262,-0.43186399,1.001228,0.73901701,-0.081542999,-0.66600698,-0.060323,-0.38347602,-1.4632218,0.18221633
3519180556512,1.2820304,0,,0.0038889949,0.00080953608,0.0012304222,9.8079262,-0.43186399,1.001228,0.73901701,-0.081542999,-0.66600698,-0.060323,-0.38347602,-1.4632218,0.18221633
3519182556576,1.2840305,0,,0.00020762437,-0.0034815305,0.0045553266,9.8241081,-0.44922599,0.99738199,0.73901802,-0.081545003,-0.66600597,-0.060316,-0.38357959,-1.4632141,0.18232685
3519184574592,1.2860485,0,,0.00020762437,-0.0034815305,0.0045553266,9.8241081,-0.44922599,0.99738199,0.73901802,-0.081545003,-0.66600597,-0.060316,-0.38357959,-1.4632141,0.18232685
3519186558432,1.2880324,0,,-0.0019934453,-0.0049639258,0.003300505,9.8730764,-0.47310099,0.99768698,0.739012,-0.081556,-0.66601199,-0.060307,-0.38388369,-1.4632229,0.18262669
3519188549792,1.2900237,0,,-0.0019934453,-0.0049639258,0.003300505,9.8730764,-0.47310099,0.99768698,0.739012,-0.081556,-0.66601199,-0.060307,-0.38388369,-1.4632229,0.18262669
3519190552928,1.2920268,0,,-0.0019934453,-0.0049639258,0.003300505,9.8730764,-0.47310099,0.99768698,0.739012,-0.081556,-0.66601199,-0.060307,-0.38388369,-1.4632229,0.18262669
3519192546048,1.29402,0,,-0.0061620419,-0.007911822,0.001066274,9.8398581,-0.462744,0.98845297,0.73900199,-0.081574,-0.66602099,-0.060307998,-0.3841795,-1.4632418,0.1828965
3519194744032,1.296218,0,,-0.0061620419,-0.007911822,0.001066274,9.8398581,-0.462744,0.98845297,0.73900199,-0.081574,-0.66602099,-0.060307998,-0.3841795,-1.4632418,0.1828965
3519196578688,1.2980526,0,,-0.00075420911,-0.0069715955,-0.0031361297,9.7831993,-0.39384601,0.97727603,0.73899001,-0.081583001,-0.66603202,-0.060313001,-0.3843307,-1.4632707,0.18302719
3519198597248,1.3000712,0,,-0.00075420911,-0.0069715955,-0.0031361297,9.7831993,-0.39384601,0.97727603,0.73899001,-0.081583001,-0.66603202,-0.060313001,-0.3843307,-1.4632707,0.18302719
3519200592672,1.3020666,0,,-0.00075420911,-0.0069715955,-0.0031361297,9.7831993,-0.39384601,0.97727603,0.73899001,-0.081583001,-0.66603202,-0.060313001,-0.3843307,-1.4632707,0.18302719
3519202599136,1.3040731,0,,0.0034533434,-0.004105189,-0.0055912843,9.7131014,-0.34365001,0.97077197,0.73898202,-0.081574999,-0.66604197,-0.060318999,-0.38421472,-1.4633012,0.18291388
3519204587520,1.3060614,0,,0.0034533434,-0.004105189,-0.0055912843,9.7131014,-0.34365001,0.97077197,0.73898202,-0.081574999,-0.66604197,-0.060318999,-0.38421472,-1.4633012,0.18291388
3519206586176,1.3080601,0,,0.0033593226,-0.0034906237,-0.00067821747,9.7075863,-0.319967,0.96992701,0.73897499,-0.081564002,-0.66605002,-0.060323,-0.38407437,-1.4633271,0.18278386
3519208577216,1.3100511,0,,0.0033593226,-0.0034906237,-0.00067821747,9.7075863,-0.319967,0.96992701,0.73897499,-0.081564002,-0.66605002,-0.060323,-0.38407437,-1.4633271,0.18278386
3519210618464,1.3120924,0,,0.0033593226,-0.0034906237,-0.00067821747,9.7075863,-0.319967,0.96992701,0.73897499,-0.081564002,-0.66605002,-0.060323,-0.38407437,-1.4633271,0.18278386
