t_recv_ns,t_s,t_stamp_ns,frame_id,angular_velocity.x,angular_velocity.y,angular_velocity.z,linear_acceleration.x,linear_acceleration.y,linear_acceleration.z,quaternion.w,quaternion.x,quaternion.y,quaternion.z,rpy.x,rpy.y,rpy.z
21067206030176,0,0,,0.0038889775,0.0076026893,-0.0019494455,9.7179117,-0.32384899,1.323559,0.74857098,-0.115955,-0.64453697,-0.10376,-0.27311905,-1.4225262,-0.03973654
21067206086304,5.6128e-05,0,,0.0038889775,0.0076026893,-0.0019494455,9.7179117,-0.32384899,1.323559,0.74857098,-0.115955,-0.64453697,-0.10376,-0.27311905,-1.4225262,-0.03973654
21067207844864,0.001814688,0,,0.0024301441,0.0037627553,-0.002008298,9.6719131,-0.38064101,1.330798,0.74857801,-0.115943,-0.64453101,-0.103765,-0.27293455,-1.4225117,-0.039911647
21067209846208,0.003816032,0,,0.0024301441,0.0037627553,-0.002008298,9.6719131,-0.38064101,1.330798,0.74857801,-0.115943,-0.64453101,-0.103765,-0.27293455,-1.4225117,-0.039911647
21067211865952,0.005835776,0,,0.0031743874,-0.00046336747,0.00062283822,9.6408319,-0.349549,1.3297091,0.748577,-0.115937,-0.64453202,-0.103765,-0.27287358,-1.4225152,-0.039963395
21067213737824,0.007707648,0,,0.0031743874,-0.00046336747,0.00062283822,9.6408319,-0.349549,1.3297091,0.748577,-0.115937,-0.64453202,-0.103765,-0.27287358,-1.4225152,-0.039963395
21067215799200,0.009769024,0,,0.0031743874,-0.00046336747,0.00062283822,9.6408319,-0.349549,1.3297091,0.748577,-0.115937,-0.64453202,-0.103765,-0.27287358,-1.4225152,-0.039963395
21067218022208,0.011992032,0,,-0.00040146064,0.0022413169,0.0024939534,9.7191362,-0.33680999,1.341591,0.74857497,-0.115937,-0.64453501,-0.103764,-0.27288343,-1.4225226,-0.039951632
21067219908960,0.013878784,0,,-0.00040146064,0.0022413169,0.0024939534,9.7191362,-0.33680999,1.341591,0.74857497,-0.115937,-0.64453501,-0.103764,-0.27288343,-1.4225226,-0.039951632
21067221915200,0.015885024,0,,-0.0022288726,-0.0011436619,0.00083831656,9.6740761,-0.377491,1.337086,0.74857301,-0.115941,-0.64453697,-0.103766,-0.27291506,-1.4225278,-0.039928262
21067223863776,0.0178336,0,,-0.0022288726,-0.0011436619,0.00083831656,9.6740761,-0.377491,1.337086,0.74857301,-0.115941,-0.64453697,-0.103766,-0.27291506,-1.4225278,-0.039928262
21067225885664,0.019855488,0,,-0.0022288726,-0.0011436619,0.00083831656,9.6740761,-0.377491,1.337086,0.74857301,-0.115941,-0.64453697,-0.103766,-0.27291506,-1.4225278,-0.039928262
21067227831232,0.021801056,0,,-0.0029419792,-0.0018406067,-0.00071387457,9.7349358,-0.32240301,1.338655,0.74856597,-0.115948,-0.64454299,-0.103773,-0.27294605,-1.4225453,-0.039916865
21067229822400,0.023792224,0,,-0.0029419792,-0.0018406067,-0.00071387457,9.7349358,-0.32240301,1.338655,0.74856597,-0.115948,-0.64454299,-0.103773,-0.27294605,-1.4225453,-0.039916865
21067231887488,0.025857312,0,,0.0028025973,0.0015747408,0.0039890197,9.7458258,-0.39848,1.347424,0.74856198,-0.115946,-0.64454699,-0.103774,-0.27292298,-1.4225576,-0.039939136
21067233852320,0.027822144,0,,0.0028025973,0.0015747408,0.0039890197,9.7458258,-0.39848,1.347424,0.74856198,-0.115946,-0.64454699,-0.103774,-0.27292298,-1.4225576,-0.039939136
21067235821472,0.029791296,0,,0.0028025973,0.0015747408,0.0039890197,9.7458258,-0.39848,1.347424,0.74856198,-0.115946,-0.64454699,-0.103774,-0.27292298,-1.4225576,-0.039939136
21067238005984,0.031975808,0,,0.00020720549,0.0001001819,3.4592425e-05,9.7727747,-0.41444701,1.353068,0.74856102,-0.115949,-0.644548,-0.10377,-0.27299573,-1.4225588,-0.039865728
21067239898848,0.033868672,0,,0.00020720549,0.0001001819,3.4592425e-05,9.7727747,-0.41444701,1.353068,0.74856102,-0.115949,-0.644548,-0.10377,-0.27299573,-1.4225588,-0.039865728
21067241836512,0.035806336,0,,0.0010351373,-0.0030242891,-0.00055105283,9.8060684,-0.476311,1.36693,0.74855602,-0.115953,-0.64455301,-0.103771,-0.27302772,-1.422573,-0.039840474
21067243873728,0.037843552,0,,0.0010351373,-0.0030242891,-0.00055105283,9.8060684,-0.476311,1.36693,0.74855602,-0.115953,-0.64455301,-0.103771,-0.27302772,-1.422573,-0.039840474
21067245845952,0.039815776,0,,0.0010351373,-0.0030242891,-0.00055105283,9.8060684,-0.476311,1.36693,0.74855602,-0.115953,-0.64455301,-0.103771,-0.27302772,-1.422573,-0.039840474
21067247848224,0.041818048,0,,0.00399546,0.0033050079,-0.0036061121,9.7025928,-0.28262401,1.36792,0.74855298,-0.115952,-0.644557,-0.10377,-0.27304234,-1.4225818,-0.039823197
21067249808128,0.043777952,0,,0.00399546,0.0033050079,-0.0036061121,9.7025928,-0.28262401,1.36792,0.74855298,-0.115952,-0.644557,-0.10377,-0.27304234,-1.4225818,-0.039823197
21067251811552,0.045781376,0,,0.00399546,0.0033050079,-0.0036061121,9.7025928,-0.28262401,1.36792,0.74855298,-0.115952,-0.644557,-0.10377,-0.27304234,-1.4225818,-0.039823197
21067253843808,0.047813632,0,,0.00399546,0.0033050079,-0.0036061121,9.7025928,-0.28262401,1.36792,0.74855298,-0.115952,-0.644557,-0.10377,-0.27304234,-1.4225818,-0.039823197
21067255812672,0.049782496,0,,0.00399546,0.0033050079,-0.0036061121,9.7025928,-0.28262401,1.36792,0.74855298,-0.115952,-0.644557,-0.10377,-0.27304234,-1.4225818,-0.039823197
21067257885856,0.05185568,0,,-0.0034305668,0.0021929537,0.0022697134,9.641737,-0.418571,1.3721189,0.74855101,-0.115953,-0.64455599,-0.103792,-0.27286149,-1.4225872,-0.040037223
21067259841440,0.053811264,0,,-0.0034305668,0.0021929537,0.0022697134,9.641737,-0.418571,1.3721189,0.74855101,-0.115953,-0.64455599,-0.103792,-0.27286149,-1.4225872,-0.040037223
21067261833120,0.055802944,0,,-0.0029382269,0.00063203607,0.0031786284,9.691433,-0.36945999,1.388842,0.74855101,-0.115966,-0.64455301,-0.103795,-0.27296697,-1.422581,-0.039953625
21067263797280,0.057767104,0,,-0.0029382269,0.00063203607,0.0031786284,9.691433,-0.36945999,1.388842,0.74855101,-0.115966,-0.64455301,-0.103795,-0.27296697,-1.422581,-0.039953625
21067265830816,0.05980064,0,,-0.0029382269,0.00063203607,0.0031786284,9.691433,-0.36945999,1.388842,0.74855101,-0.115966,-0.64455301,-0.103795,-0.27296697,-1.422581,-0.039953625
21067267830496,0.06180032,0,,0.0012947725,0.0027840096,0.0054577669,9.708683,-0.39419299,1.3934799,0.74855298,-0.115973,-0.64455098,-0.103789,-0.27308054,-1.4225741,-0.039842758
21067269827296,0.06379712,0,,0.0012947725,0.0027840096,0.0054577669,9.708683,-0.39419299,1.3934799,0.74855298,-0.115973,-0.64455098,-0.103789,-0.27308054,-1.4225741,-0.039842758
21067271821568,0.065791392,0,,0.0058545846,0.0016793558,0.0039979036,9.7480307,-0.44877201,1.41702,0.748559,-0.11597,-0.64454597,-0.103776,-0.27315344,-1.4225561,-0.039747396
21067273842112,0.067811936,0,,0.0058545846,0.0016793558,0.0039979036,9.7480307,-0.44877201,1.41702,0.748559,-0.11597,-0.64454597,-0.103776,-0.27315344,-1.4225561,-0.039747396
21067275858208,0.069828032,0,,0.0058545846,0.0016793558,0.0039979036,9.7480307,-0.44877201,1.41702,0.748559,-0.11597,-0.64454597,-0.103776,-0.27315344,-1.4225561,-0.039747396
21067278125888,0.072095712,0,,0.0021169448,0.0005629734,-0.0023450767,9.7898512,-0.48226199,1.4268841,0.74856102,-0.115969,-0.64454502,-0.103771,-0.27317919,-1.4225516,-0.039711023
21067279865056,0.07383488,0,,0.0021169448,0.0005629734,-0.0023450767,9.7898512,-0.48226199,1.4268841,0.74856102,-0.115969,-0.64454502,-0.103771,-0.27317919,-1.4225516,-0.039711023
21067281819872,0.075789696,0,,-0.00012276646,0.00028112019,0.002959101,9.7900734,-0.356904,1.436438,0.74856001,-0.115974,-0.64454401,-0.103772,-0.27322705,-1.4225511,-0.039673115
21067283836096,0.07780592,0,,-0.00012276646,0.00028112019,0.002959101,9.7900734,-0.356904,1.436438,0.74856001,-0.115974,-0.64454401,-0.103772,-0.27322705,-1.4225511,-0.039673115
21067285854624,0.079824448,0,,-0.00012276646,0.00028112019,0.002959101,9.7900734,-0.356904,1.436438,0.74856001,-0.115974,-0.64454401,-0.103772,-0.27322705,-1.4225511,-0.039673115
21067287827104,0.081796928,0,,0.0028875426,0.0034194492,0.0017081712,9.6752644,-0.398325,1.43022,0.74856502,-0.11597,-0.64454103,-0.103768,-0.27321178,-1.4225399,-0.039676639
21067289867296,0.08383712,0,,0.0028875426,0.0034194492,0.0017081712,9.6752644,-0.398325,1.43022,0.74856502,-0.11597,-0.64454103,-0.103768,-0.27321178,-1.4225399,-0.039676639
21067291816032,0.085785856,0,,0.0033994999,-1.4660766e-06,-0.00076412262,9.6522179,-0.38249099,1.4410599,0.74856901,-0.115967,-0.64453799,-0.103764,-0.27320865,-1.422531,-0.039668995
21067293809664,0.087779488,0,,0.0033994999,-1.4660766e-06,-0.00076412262,9.6522179,-0.38249099,1.4410599,0.74856901,-0.115967,-0.64453799,-0.103764,-0.27320865,-1.422531,-0.039668995
21067295849856,0.08981968,0,,0.0033994999,-1.4660766e-06,-0.00076412262,9.6522179,-0.38249099,1.4410599,0.74856901,-0.115967,-0.64453799,-0.103764,-0.27320865,-1.422531,-0.039668995
21067298001120,0.091970944,0,,-0.0035572428,-0.003887145,-0.0012894493,9.7332897,-0.40952399,1.468026,0.74856597,-0.115963,-0.64454103,-0.103765,-0.27316439,-1.4225387,-0.039709505
21067299811200,0.093781024,0,,-0.0035572428,-0.003887145,-0.0012894493,9.7332897,-0.40952399,1.468026,0.74856597,-0.115963,-0.64454103,-0.103765,-0.27316439,-1.4225387,-0.039709505
21067301856096,0.09582592,0,,-0.0048147523,-0.0036107024,0.002003795,9.6567717,-0.33865198,1.444331,0.74856198,-0.115969,-0.64454401,-0.103769,-0.27319214,-1.4225475,-0.03969591
21067303843328,0.097813152,0,,-0.0048147523,-0.0036107024,0.002003795,9.6567717,-0.33865198,1.444331,0.74856198,-0.115969,-0.64454401,-0.103769,-0.27319214,-1.4225475,-0.03969591
21067305830272,0.099800096,0,,-0.0048147523,-0.0036107024,0.002003795,9.6567717,-0.33865198,1.444331,0.74856198,-0.115969,-0.64454401,-0.103769,-0.27319214,-1.4225475,-0.03969591
21067307808416,0.10177824,0,,-0.0019022518,0.0031015897,0.004775413,9.6387615,-0.39339301,1.428225,0.74856299,-0.115978,-0.64454103,-0.103769,-0.27328552,-1.4225423,-0.039615204
21067309851424,0.10382125,0,,-0.0019022518,0.0031015897,0.004775413,9.6387615,-0.39339301,1.428225,0.74856299,-0.115978,-0.64454103,-0.103769,-0.27328552,-1.4225423,-0.039615204
21067311892288,0.10586211,0,,-0.00077450732,0.0026284484,0.00065999627,9.6920824,-0.44933501,1.453091,0.74856901,-0.115981,-0.64453399,-0.103766,-0.2733263,-1.4225216,-0.039575793
21067313806400,0.10777622,0,,-0.00077450732,0.0026284484,0.00065999627,9.6920824,-0.44933501,1.453091,0.74856901,-0.115981,-0.64453399,-0.103766,-0.2733263,-1.4225216,-0.039575793
21067315846272,0.1098161,0,,-0.00077450732,0.0026284484,0.00065999627,9.6920824,-0.44933501,1.453091,0.74856901,-0.115981,-0.64453399,-0.103766,-0.2733263,-1.4225216,-0.039575793
21067317992000,0.11196182,0,,-0.00089455106,0.00069971996,0.00011782718,9.7790413,-0.41867501,1.472648,0.74857402,-0.115985,-0.64452702,-0.10377,-0.27331641,-1.422507,-0.039596112
21067319803424,0.11377325,0,,-0.00089455106,0.00069971996,0.00011782718,9.7790413,-0.41867501,1.472648,0.74857402,-0.115985,-0.64452702,-0.10377,-0.27331641,-1.422507,-0.039596112
21067321913152,0.11588298,0,,0.0086051541,0.00079185591,-2.5569073e-05,9.747365,-0.378858,1.450207,0.74857903,-0.115976,-0.64452302,-0.103764,-0.27327069,-1.4224935,-0.039620597
21067323833088,0.11780291,0,,0.0086051541,0.00079185591,-2.5569073e-05,9.747365,-0.378858,1.450207,0.74857903,-0.115976,-0.64452302,-0.103764,-0.27327069,-1.4224935,-0.039620597
21067325837728,0.11980755,0,,0.0086051541,0.00079185591,-2.5569073e-05,9.747365,-0.378858,1.450207,0.74857903,-0.115976,-0.64452302,-0.103764,-0.27327069,-1.4224935,-0.039620597
21067327860704,0.12183053,0,,0.0018488797,-0.0021524098,-0.0022514223,9.6489334,-0.35678899,1.448607,0.74857998,-0.115961,-0.644526,-0.103758,-0.27316732,-1.4224991,-0.039694478
21067329827296,0.12379712,0,,0.0018488797,-0.0021524098,-0.0022514223,9.6489334,-0.35678899,1.448607,0.74857998,-0.115961,-0.644526,-0.103758,-0.27316732,-1.4224991,-0.039694478
21067331856192,0.12582602,0,,0.0021345202,0.0024950004,-0.00072155404,9.6803284,-0.435794,1.451152,0.74858099,-0.115949,-0.644526,-0.103762,-0.27300743,-1.4224989,-0.039842621
21067333816512,0.12778634,0,,0.0021345202,0.0024950004,-0.00072155404,9.6803284,-0.435794,1.451152,0.74858099,-0.115949,-0.644526,-0.103762,-0.27300743,-1.4224989,-0.039842621
21067335823392,0.12979322,0,,0.0021345202,0.0024950004,-0.00072155404,9.6803284,-0.435794,1.451152,0.74858099,-0.115949,-0.644526,-0.103762,-0.27300743,-1.4224989,-0.039842621
21067338016320,0.13198614,0,,-0.0030333298,0.0049898266,0.0032636959,9.7453117,-0.339118,1.4389809,0.74858999,-0.115952,-0.64451599,-0.103761,-0.27303706,-1.4224713,-0.039815586
21067339820032,0.13378986,0,,-0.0030333298,0.0049898266,0.0032636959,9.7453117,-0.339118,1.4389809,0.74858999,-0.115952,-0.64451599,-0.103761,-0.27303706,-1.4224713,-0.039815586
21067341813440,0.13578326,0,,-0.0052786084,-0.0016928996,0.0047982069,9.7415857,-0.34478799,1.423449,0.74859399,-0.115963,-0.64450902,-0.103764,-0.27310264,-1.4224559,-0.039771078
21067343854528,0.13782435,0,,-0.0052786084,-0.0016928996,0.0047982069,9.7415857,-0.34478799,1.423449,0.74859399,-0.115963,-0.64450902,-0.103764,-0.27310264,-1.4224559,-0.039771078
21067345871360,0.13984118,0,,-0.0052786084,-0.0016928996,0.0047982069,9.7415857,-0.34478799,1.423449,0.74859399,-0.115963,-0.64450902,-0.103764,-0.27310264,-1.4224559,-0.039771078
21067347853248,0.14182307,0,,-0.0014298087,-0.0063289129,0.0044287204,9.7056942,-0.488258,1.417495,0.748586,-0.115973,-0.64451599,-0.103761,-0.27325473,-1.4224722,-0.039628137
21067349846624,0.14381645,0,,-0.0014298087,-0.0063289129,0.0044287204,9.7056942,-0.488258,1.417495,0.748586,-0.115973,-0.64451599,-0.103761,-0.27325473,-1.4224722,-0.039628137
21067351863200,0.14583302,0,,0.001390591,0.0020257513,-0.0038371064,9.75453,-0.40922999,1.409266,0.74858201,-0.115982,-0.64451998,-0.10376,-0.27336034,-1.4224821,-0.039533732
21067353817120,0.14778694,0,,0.001390591,0.0020257513,-0.0038371064,9.75453,-0.40922999,1.409266,0.74858201,-0.115982,-0.64451998,-0.10376,-0.27336034,-1.4224821,-0.039533732
21067355821248,0.14979107,0,,0.001390591,0.0020257513,-0.0038371064,9.75453,-0.40922999,1.409266,0.74858201,-0.115982,-0.64451998,-0.10376,-0.27336034,-1.4224821,-0.039533732
21067358010464,0.15198029,0,,0.0026592883,0.00094333301,-0.0014669318,9.7714987,-0.36164001,1.404852,0.74858499,-0.115972,-0.644517,-0.103764,-0.27321158,-1.4224766,-0.039674459
21067359845344,0.15381517,0,,0.0026592883,0.00094333301,-0.0014669318,9.7714987,-0.36164001,1.404852,0.74858499,-0.115972,-0.644517,-0.103764,-0.27321158,-1.4224766,-0.039674459
21067361865472,0.1558353,0,,0.0014624289,0.0044772409,0.00088674942,9.6759958,-0.428119,1.4068379,0.74858701,-0.115966,-0.64451599,-0.103765,-0.27314247,-1.4224734,-0.039737168
21067363811552,0.15778138,0,,0.0014624289,0.0044772409,0.00088674942,9.6759958,-0.428119,1.4068379,0.74858701,-0.115966,-0.64451599,-0.103765,-0.27314247,-1.4224734,-0.039737168
21067365843552,0.15981338,0,,0.0014624289,0.0044772409,0.00088674942,9.6759958,-0.428119,1.4068379,0.74858701,-0.115966,-0.64451599,-0.103765,-0.27314247,-1.4224734,-0.039737168
21067367806272,0.1617761,0,,-0.0028439268,0.0018891094,-0.0042308176,9.5829086,-0.39052299,1.368369,0.74859297,-0.115969,-0.644508,-0.103771,-0.27310246,-1.4224551,-0.039790294
21067369842400,0.16381222,0,,-0.0028439268,0.0018891094,-0.0042308176,9.5829086,-0.39052299,1.368369,0.74859297,-0.115969,-0.644508,-0.103771,-0.27310246,-1.4224551,-0.039790294
21067371842944,0.16581277,0,,0.00019839157,0.00049129272,0.0014478204,9.6788254,-0.36011201,1.371877,0.74859202,-0.115967,-0.644508,-0.103779,-0.27301226,-1.422458,-0.039888714
21067373858816,0.16782864,0,,0.00019839157,0.00049129272,0.0014478204,9.6788254,-0.36011201,1.371877,0.74859202,-0.115967,-0.644508,-0.103779,-0.27301226,-1.422458,-0.039888714
21067375807744,0.16977757,0,,0.00019839157,0.00049129272,0.0014478204,9.6788254,-0.36011201,1.371877,0.74859202,-0.115967,-0.644508,-0.103779,-0.27301226,-1.422458,-0.039888714
21067378069024,0.17203885,0,,-0.0012583301,-0.00010145599,0.0060593817,9.6941729,-0.37519899,1.356548,0.74859101,-0.115972,-0.644508,-0.103776,-0.27309865,-1.4224571,-0.039805566
21067379857920,0.17382774,0,,-0.0012583301,-0.00010145599,0.0060593817,9.6941729,-0.37519899,1.356548,0.74859101,-0.115972,-0.644508,-0.103776,-0.27309865,-1.4224571,-0.039805566
21067381912448,0.17588227,0,,0.0014032797,-0.0012701285,0.0055954034,9.7165985,-0.44167301,1.347178,0.74858898,-0.115981,-0.64450997,-0.103766,-0.27328064,-1.4224596,-0.039622798
21067383842720,0.17781254,0,,0.0014032797,-0.0012701285,0.0055954034,9.7165985,-0.44167301,1.347178,0.74858898,-0.115981,-0.64450997,-0.103766,-0.27328064,-1.4224596,-0.039622798
21067385850624,0.17982045,0,,0.0014032797,-0.0012701285,0.0055954034,9.7165985,-0.44167301,1.347178,0.74858898,-0.115981,-0.64450997,-0.103766,-0.27328064,-1.4224596,-0.039622798
21067387832096,0.18180192,0,,0.00039034289,-0.0010287843,-3.5622169e-05,9.8321514,-0.45453799,1.381528,0.748586,-0.115988,-0.64451402,-0.103761,-0.27340311,-1.4224673,-0.039502369
21067389827456,0.18379728,0,,0.00039034289,-0.0010287843,-3.5622169e-05,9.8321514,-0.45453799,1.381528,0.748586,-0.115988,-0.64451402,-0.103761,-0.27340311,-1.4224673,-0.039502369
21067391826048,0.18579587,0,,-0.0019958887,0.00050295153,-0.0049448322,9.8427067,-0.41662899,1.375109,0.74858302,-0.11599,-0.64451599,-0.10377,-0.27335596,-1.4224761,-0.039564416
21067393819360,0.18778918,0,,-0.0019958887,0.00050295153,-0.0049448322,9.8427067,-0.41662899,1.375109,0.74858302,-0.11599,-0.64451599,-0.10377,-0.27335596,-1.4224761,-0.039564416
21067395817152,0.18978698,0,,-0.0019958887,0.00050295153,-0.0049448322,9.8427067,-0.41662899,1.375109,0.74858302,-0.11599,-0.64451599,-0.10377,-0.27335596,-1.4224761,-0.039564416
21067398006464,0.19197629,0,,0.0044556511,0.0027161512,-0.0057965001,9.7863445,-0.393776,1.360701,0.74857903,-0.115983,-0.64451897,-0.103782,-0.27318112,-1.4224898,-0.039746697
21067399816800,0.19378662,0,,0.0044556511,0.0027161512,-0.0057965001,9.7863445,-0.393776,1.360701,0.74857903,-0.115983,-0.64451897,-0.103782,-0.27318112,-1.4224898,-0.039746697
21067401887424,0.19585725,0,,-0.00019657643,0.0019615058,-0.0050920155,9.6907949,-0.406405,1.336499,0.74858099,-0.115969,-0.64451802,-0.103791,-0.27295196,-1.4224898,-0.039968318
21067403837344,0.19780717,0,,-0.00019657643,0.0019615058,-0.0050920155,9.6907949,-0.406405,1.336499,0.74858099,-0.115969,-0.64451802,-0.103791,-0.27295196,-1.4224898,-0.039968318
21067405820160,0.19978998,0,,-0.00019657643,0.0019615058,-0.0050920155,9.6907949,-0.406405,1.336499,0.74858099,-0.115969,-0.64451802,-0.103791,-0.27295196,-1.4224898,-0.039968318
21067407849312,0.20181914,0,,-0.001007055,-0.001865373,-0.0028489532,9.625803,-0.33578399,1.324285,0.748577,-0.115967,-0.64452201,-0.103799,-0.27286604,-1.4225029,-0.040062952
21067409813984,0.20378381,0,,-0.001007055,-0.001865373,-0.0028489532,9.625803,-0.33578399,1.324285,0.748577,-0.115967,-0.64452201,-0.103799,-0.27286604,-1.4225029,-0.040062952
21067411823712,0.20579354,0,,-0.0034702032,-0.001069433,0.0056097325,9.6334896,-0.320182,1.3233531,0.74857002,-0.115974,-0.64452797,-0.103806,-0.27289773,-1.4225216,-0.040050647
21067413843840,0.20781366,0,,-0.0034702032,-0.001069433,0.0056097325,9.6334896,-0.320182,1.3233531,0.74857002,-0.115974,-0.64452797,-0.103806,-0.27289773,-1.4225216,-0.040050647
21067415845792,0.20981562,0,,-0.0034702032,-0.001069433,0.0056097325,9.6334896,-0.320182,1.3233531,0.74857002,-0.115974,-0.64452797,-0.103806,-0.27289773,-1.4225216,-0.040050647
21067418003168,0.21197299,0,,-0.00070991266,0.0013077752,0.0079216652,9.67698,-0.41978601,1.342031,0.74856699,-0.115986,-0.64453,-0.103799,-0.2730831,-1.4225234,-0.039872099
21067419824832,0.21379466,0,,-0.00070991266,0.0013077752,0.0079216652,9.67698,-0.41978601,1.342031,0.74856699,-0.115986,-0.64453,-0.103799,-0.2730831,-1.4225234,-0.039872099
21067421942176,0.215912,0,,0.0016419708,0.0061660736,0.0021163687,9.7186775,-0.43826899,1.33927,0.74857199,-0.115995,-0.64452302,-0.103792,-0.27323525,-1.4225051,-0.039723727
21067423806752,0.21777658,0,,0.0016419708,0.0061660736,0.0021163687,9.7186775,-0.43826899,1.33927,0.74857199,-0.115995,-0.64452302,-0.103792,-0.27323525,-1.4225051,-0.039723727
21067425798400,0.21976822,0,,0.0016419708,0.0061660736,0.0021163687,9.7186775,-0.43826899,1.33927,0.74857199,-0.115995,-0.64452302,-0.103792,-0.27323525,-1.4225051,-0.039723727
21067427841440,0.22181126,0,,0.00078002252,0.0029523814,-0.0033883822,9.8232231,-0.360603,1.352584,0.74857903,-0.115995,-0.64451599,-0.103792,-0.27320502,-1.422486,-0.039754395
21067429825792,0.22379562,0,,0.00078002252,0.0029523814,-0.0033883822,9.8232231,-0.360603,1.352584,0.74857903,-0.115995,-0.64451599,-0.103792,-0.27320502,-1.422486,-0.039754395
21067431793216,0.22576304,0,,-0.0035957099,-0.00049434707,-0.0025133091,9.7546682,-0.39951,1.346365,0.74857402,-0.115992,-0.64451998,-0.103806,-0.27306787,-1.4225017,-0.03990697
21067433788864,0.22775869,0,,-0.0035957099,-0.00049434707,-0.0025133091,9.7546682,-0.39951,1.346365,0.74857402,-0.115992,-0.64451998,-0.103806,-0.27306787,-1.4225017,-0.03990697
21067435827008,0.22979683,0,,-0.0035957099,-0.00049434707,-0.0025133091,9.7546682,-0.39951,1.346365,0.74857402,-0.115992,-0.64451998,-0.103806,-0.27306787,-1.4225017,-0.03990697
21067437983808,0.23195363,0,,0.0030820071,0.002080066,-0.0061737879,9.6951418,-0.383948,1.352895,0.74857002,-0.115988,-0.64452201,-0.10382,-0.2729207,-1.4225122,-0.040068569
21067439821056,0.23379088,0,,0.0030820071,0.002080066,-0.0061737879,9.6951418,-0.383948,1.352895,0.74857002,-0.115988,-0.64452201,-0.10382,-0.2729207,-1.4225122,-0.040068569
21067441845984,0.23581581,0,,0.0054966178,0.0042995487,-0.00053873077,9.7154074,-0.33143601,1.356619,0.74857402,-0.115974,-0.64451998,-0.103823,-0.27273353,-1.4225073,-0.040240327
21067443863072,0.2378329,0,,0.0054966178,0.0042995487,-0.00053873077,9.7154074,-0.33143601,1.356619,0.74857402,-0.115974,-0.64451998,-0.103823,-0.27273353,-1.4225073,-0.040240327
21067445832224,0.23980205,0,,0.0054966178,0.0042995487,-0.00053873077,9.7154074,-0.33143601,1.356619,0.74857402,-0.115974,-0.64451998,-0.103823,-0.27273353,-1.4225073,-0.040240327
21067447842784,0.24181261,0,,0.0009596344,0.0033708415,0.0038153944,9.6966009,-0.320674,1.359867,0.74857903,-0.115967,-0.64451599,-0.103821,-0.27267426,-1.4224947,-0.040286599
21067449820096,0.24378992,0,,0.0009596344,0.0033708415,0.0038153944,9.6966009,-0.320674,1.359867,0.74857903,-0.115967,-0.64451599,-0.103821,-0.27267426,-1.4224947,-0.040286599
21067451825344,0.24579517,0,,0.0014456737,0.0003533768,0.0059224084,9.7107048,-0.39619899,1.3791291,0.74857998,-0.115969,-0.64451599,-0.103812,-0.27277439,-1.4224906,-0.040175961
21067453823648,0.24779347,0,,0.0014456737,0.0003533768,0.0059224084,9.7107048,-0.39619899,1.3791291,0.74857998,-0.115969,-0.64451599,-0.103812,-0.27277439,-1.4224906,-0.040175961
21067455820896,0.24979072,0,,0.0014456737,0.0003533768,0.0059224084,9.7107048,-0.39619899,1.3791291,0.74857998,-0.115969,-0.64451599,-0.103812,-0.27277439,-1.4224906,-0.040175961
21067457891872,0.2518617,0,,0.00010567968,0.0016898277,0.0045312412,9.7548428,-0.377397,1.387835,0.74858099,-0.115978,-0.64451498,-0.103803,-0.27293937,-1.422485,-0.040012614
21067459817568,0.25378739,0,,0.00010567968,0.0016898277,0.0045312412,9.7548428,-0.377397,1.387835,0.74858099,-0.115978,-0.64451498,-0.103803,-0.27293937,-1.422485,-0.040012614
21067461814208,0.25578403,0,,0.0032829817,0.0054844879,0.0012407197,9.7612391,-0.43765,1.416187,0.74858701,-0.115977,-0.64450902,-0.103798,-0.27296502,-1.4224701,-0.039977639
21067463864384,0.25783421,0,,0.0032829817,0.0054844879,0.0012407197,9.7612391,-0.43765,1.416187,0.74858701,-0.115977,-0.64450902,-0.103798,-0.27296502,-1.4224701,-0.039977639
21067465809344,0.25977917,0,,0.0032829817,0.0054844879,0.0012407197,9.7612391,-0.43765,1.416187,0.74858701,-0.115977,-0.64450902,-0.103798,-0.27296502,-1.4224701,-0.039977639
21067467810560,0.26178038,0,,-0.0028449564,0.0057861679,-0.0044830353,9.6668739,-0.37819999,1.379185,0.748595,-0.115974,-0.644499,-0.103804,-0.2728571,-1.4224427,-0.040089097
21067469844608,0.26381443,0,,-0.0028449564,0.0057861679,-0.0044830353,9.6668739,-0.37819999,1.379185,0.748595,-0.115974,-0.644499,-0.103804,-0.2728571,-1.4224427,-0.040089097
21067471845760,0.26581558,0,,-0.0044376045,0.0031512444,-0.00094556705,9.6590586,-0.33989599,1.398806,0.74859899,-0.115974,-0.64449102,-0.10382,-0.27270442,-1.4224298,-0.04026581
21067473819872,0.2677897,0,,-0.0044376045,0.0031512444,-0.00094556705,9.6590586,-0.33989599,1.398806,0.74859899,-0.115974,-0.64449102,-0.10382,-0.27270442,-1.4224298,-0.04026581
21067475805248,0.26977507,0,,-0.0044376045,0.0031512444,-0.00094556705,9.6590586,-0.33989599,1.398806,0.74859899,-0.115974,-0.64449102,-0.10382,-0.27270442,-1.4224298,-0.04026581
21067477999168,0.27196899,0,,-0.0032708692,-0.0027466247,0.0014835823,9.632163,-0.41609401,1.41126,0.74859798,-0.115976,-0.64449102,-0.103829,-0.27265262,-1.4224331,-0.040333196
21067479840608,0.27381043,0,,-0.0032708692,-0.0027466247,0.0014835823,9.632163,-0.41609401,1.41126,0.74859798,-0.115976,-0.64449102,-0.103829,-0.27265262,-1.4224331,-0.040333196
21067481834720,0.27580454,0,,0.0026091275,-0.0018915878,0.0059097896,9.6430826,-0.35742301,1.4064569,0.748595,-0.115989,-0.64449298,-0.103824,-0.27282031,-1.4224359,-0.040177218
21067483833952,0.27780378,0,,0.0026091275,-0.0018915878,0.0059097896,9.6430826,-0.35742301,1.4064569,0.748595,-0.115989,-0.64449298,-0.103824,-0.27282031,-1.4224359,-0.040177218
21067485835840,0.27980566,0,,0.0026091275,-0.0018915878,0.0059097896,9.6430826,-0.35742301,1.4064569,0.748595,-0.115989,-0.64449298,-0.103824,-0.27282031,-1.4224359,-0.040177218
21067487801152,0.28177098,0,,0.0043534445,-0.0022466227,0.0063487571,9.7393169,-0.35594898,1.423084,0.74859399,-0.115989,-0.64449698,-0.103807,-0.27298435,-1.4224419,-0.039988704
21067489792672,0.2837625,0,,0.0043534445,-0.0022466227,0.0063487571,9.7393169,-0.35594898,1.423084,0.74859399,-0.115989,-0.64449698,-0.103807,-0.27298435,-1.4224419,-0.039988704
21067491827296,0.28579712,0,,0.0053197288,0.0020404645,0.0066563194,9.7498035,-0.42203301,1.4444211,0.74859798,-0.115987,-0.64449602,-0.103787,-0.2731318,-1.4224314,-0.039810351
21067493817632,0.28778746,0,,0.0053197288,0.0020404645,0.0066563194,9.7498035,-0.42203301,1.4444211,0.74859798,-0.115987,-0.64449602,-0.103787,-0.2731318,-1.4224314,-0.039810351
21067495817600,0.28978742,0,,0.0053197288,0.0020404645,0.0066563194,9.7498035,-0.42203301,1.4444211,0.74859798,-0.115987,-0.64449602,-0.103787,-0.2731318,-1.4224314,-0.039810351
21067498010816,0.29198064,0,,0.00022731167,-0.0029153455,0.0014200697,9.8104715,-0.49316999,1.4569269,0.74859899,-0.11599,-0.64449602,-0.103777,-0.27324509,-1.4224278,-0.039686693
21067499819520,0.29378934,0,,0.00022731167,-0.0029153455,0.0014200697,9.8104715,-0.49316999,1.4569269,0.74859899,-0.11599,-0.64449602,-0.103777,-0.27324509,-1.4224278,-0.039686693
21067501814496,0.29578432,0,,-0.002534759,0.0031233889,-0.0026673168,9.7691545,-0.38385701,1.424964,0.74859899,-0.115997,-0.644494,-0.103783,-0.27326411,-1.4224246,-0.03968465
21067503837760,0.29780758,0,,-0.002534759,0.0031233889,-0.0026673168,9.7691545,-0.38385701,1.424964,0.74859899,-0.115997,-0.644494,-0.103783,-0.27326411,-1.4224246,-0.03968465
21067505867808,0.29983763,0,,-0.002534759,0.0031233889,-0.0026673168,9.7691545,-0.38385701,1.424964,0.74859899,-0.115997,-0.644494,-0.103783,-0.27326411,-1.4224246,-0.03968465
21067507819904,0.30178973,0,,-0.00076742127,0.0030259645,-0.00108926,9.6667118,-0.33276501,1.425612,0.74860197,-0.115993,-0.64448899,-0.103792,-0.27313442,-1.4224146,-0.039823929
21067509819328,0.30378915,0,,-0.00076742127,0.0030259645,-0.00108926,9.6667118,-0.33276501,1.425612,0.74860197,-0.115993,-0.64448899,-0.103792,-0.27313442,-1.4224146,-0.039823929
21067511870688,0.30584051,0,,0.0011837871,0.0017580004,0.0038080465,9.6499901,-0.48069799,1.441998,0.74860501,-0.115991,-0.64448601,-0.103793,-0.27310551,-1.4224065,-0.039850702
21067513852480,0.3078223,0,,0.0011837871,0.0017580004,0.0038080465,9.6499901,-0.48069799,1.441998,0.74860501,-0.115991,-0.64448601,-0.103793,-0.27310551,-1.4224065,-0.039850702
21067515818912,0.30978874,0,,0.0011837871,0.0017580004,0.0038080465,9.6499901,-0.48069799,1.441998,0.74860501,-0.115991,-0.64448601,-0.103793,-0.27310551,-1.4224065,-0.039850702
21067517980160,0.31194998,0,,-0.0013664531,0.0006211452,-0.00056227529,9.6679688,-0.41800001,1.4319381,0.74860901,-0.115998,-0.644481,-0.103789,-0.27319677,-1.4223923,-0.039764536
21067519848064,0.31381789,0,,-0.0013664531,0.0006211452,-0.00056227529,9.6679688,-0.41800001,1.4319381,0.74860901,-0.115998,-0.644481,-0.103789,-0.27319677,-1.4223923,-0.039764536
21067521862240,0.31583206,0,,0.0017079792,0.0031684533,0.00067174233,9.6673317,-0.32686099,1.420844,0.74861199,-0.116,-0.644476,-0.103792,-0.27318508,-1.4223818,-0.03978265
21067523812672,0.3177825,0,,0.0017079792,0.0031684533,0.00067174233,9.6673317,-0.32686099,1.420844,0.74861199,-0.116,-0.644476,-0.103792,-0.27318508,-1.4223818,-0.03978265
21067525837152,0.31980698,0,,0.0017079792,0.0031684533,0.00067174233,9.6673317,-0.32686099,1.420844,0.74861199,-0.116,-0.644476,-0.103792,-0.27318508,-1.4223818,-0.03978265
21067527853792,0.32182362,0,,0.0077866643,0.0025654769,0.0024748421,9.6640406,-0.424375,1.433359,0.74861902,-0.115986,-0.644472,-0.103783,-0.27311165,-1.4223661,-0.039822968
21067529796320,0.32376614,0,,0.0077866643,0.0025654769,0.0024748421,9.6640406,-0.424375,1.433359,0.74861902,-0.115986,-0.644472,-0.103783,-0.27311165,-1.4223661,-0.039822968
21067531808704,0.32577853,0,,0.0041131652,0.0038319052,0.001999519,9.7041893,-0.47828901,1.441119,0.74862802,-0.115978,-0.64446598,-0.103768,-0.27314159,-1.4223447,-0.039761549
21067533832832,0.32780266,0,,0.0041131652,0.0038319052,0.001999519,9.7041893,-0.47828901,1.441119,0.74862802,-0.115978,-0.64446598,-0.103768,-0.27314159,-1.4223447,-0.039761549
21067535803520,0.32977334,0,,0.0041131652,0.0038319052,0.001999519,9.7041893,-0.47828901,1.441119,0.74862802,-0.115978,-0.64446598,-0.103768,-0.27314159,-1.4223447,-0.039761549
21067537984768,0.33195459,0,,-0.0055736914,0.0055521889,-0.0024946514,9.768239,-0.35863501,1.435923,0.74863601,-0.115983,-0.64445502,-0.103773,-0.27312623,-1.4223178,-0.039791551
21067539831104,0.33380093,0,,-0.0055736914,0.0055521889,-0.0024946514,9.768239,-0.35863501,1.435923,0.74863601,-0.115983,-0.64445502,-0.103773,-0.27312623,-1.4223178,-0.039791551
21067541824768,0.33579459,0,,0.0012389045,0.0057041374,0.0047347639,9.7586317,-0.38242099,1.432303,0.74864602,-0.115985,-0.64444202,-0.10378,-0.2730561,-1.4222858,-0.039873497
21067543873248,0.33784307,0,,0.0012389045,0.0057041374,0.0047347639,9.7586317,-0.38242099,1.432303,0.74864602,-0.115985,-0.64444202,-0.10378,-0.2730561,-1.4222858,-0.039873497
21067545842688,0.33981251,0,,0.0012389045,0.0057041374,0.0047347639,9.7586317,-0.38242099,1.432303,0.74864602,-0.115985,-0.64444202,-0.10378,-0.2730561,-1.4222858,-0.039873497
21067547898272,0.3418681,0,,0.001376035,-0.00088674942,0.0029775317,9.6983404,-0.436364,1.4187599,0.74865198,-0.115988,-0.644436,-0.103771,-0.27314988,-1.4222682,-0.039771989
21067549871136,0.34384096,0,,0.001376035,-0.00088674942,0.0029775317,9.6983404,-0.436364,1.4187599,0.74865198,-0.115988,-0.644436,-0.103771,-0.27314988,-1.4222682,-0.039771989
21067551858496,0.34582832,0,,0.0034481598,-0.00082831579,-0.0012685926,9.7171659,-0.377823,1.418763,0.74865001,-0.115987,-0.64443797,-0.103766,-0.27319842,-1.4222726,-0.03971446
21067553818368,0.34778819,0,,0.0034481598,-0.00082831579,-0.0012685926,9.7171659,-0.377823,1.418763,0.74865001,-0.115987,-0.64443797,-0.103766,-0.27319842,-1.4222726,-0.03971446
21067555816224,0.34978605,0,,0.0034481598,-0.00082831579,-0.0012685926,9.7171659,-0.377823,1.418763,0.74865001,-0.115987,-0.64443797,-0.103766,-0.27319842,-1.4222726,-0.03971446
21067557972864,0.35194269,0,,0.0034481598,-0.00082831579,-0.0012685926,9.7171659,-0.377823,1.418763,0.74865001,-0.115987,-0.64443797,-0.103766,-0.27319842,-1.4222726,-0.03971446
21067559806880,0.3537767,0,,0.0034481598,-0.00082831579,-0.0012685926,9.7171659,-0.377823,1.418763,0.74865001,-0.115987,-0.64443797,-0.103766,-0.27319842,-1.4222726,-0.03971446
21067561809632,0.35577946,0,,0.0042117937,-0.00042165408,-0.00097974055,9.7418213,-0.43035701,1.4123859,0.74865299,-0.115966,-0.64444,-0.103765,-0.27298831,-1.4222756,-0.03989196
21067563852416,0.35782224,0,,0.0042117937,-0.00042165408,-0.00097974055,9.7418213,-0.43035701,1.4123859,0.74865299,-0.115966,-0.64444,-0.103765,-0.27298831,-1.4222756,-0.03989196
21067565808448,0.35977827,0,,0.0042117937,-0.00042165408,-0.00097974055,9.7418213,-0.43035701,1.4123859,0.74865299,-0.115966,-0.64444,-0.103765,-0.27298831,-1.4222756,-0.03989196
21067567835712,0.36180554,0,,-0.0015816349,-0.00036449456,-0.0028277127,9.7016659,-0.440373,1.3928339,0.74865103,-0.115963,-0.64444101,-0.103769,-0.27292977,-1.42228,-0.039953221
21067569897632,0.36386746,0,,-0.0015816349,-0.00036449456,-0.0028277127,9.7016659,-0.440373,1.3928339,0.74865103,-0.115963,-0.64444101,-0.103769,-0.27292977,-1.42228,-0.039953221
21067571804768,0.36577459,0,,0.00127142,0.0029064793,-0.0009612401,9.6719437,-0.33828801,1.353092,0.74865001,-0.115965,-0.64444101,-0.103774,-0.27290424,-1.422282,-0.039989698
21067573840256,0.36781008,0,,0.00127142,0.0029064793,-0.0009612401,9.6719437,-0.33828801,1.353092,0.74865001,-0.115965,-0.64444101,-0.103774,-0.27290424,-1.422282,-0.039989698
21067575833632,0.36980346,0,,0.00127142,0.0029064793,-0.0009612401,9.6719437,-0.33828801,1.353092,0.74865001,-0.115965,-0.64444101,-0.103774,-0.27290424,-1.422282,-0.039989698
21067578041568,0.37201139,0,,0.0064034387,0.0019774057,0.0015375304,9.6689262,-0.29561698,1.3443609,0.74865502,-0.115953,-0.64443797,-0.103773,-0.27278709,-1.422273,-0.040087386
21067579804800,0.37377462,0,,0.0064034387,0.0019774057,0.0015375304,9.6689262,-0.29561698,1.3443609,0.74865502,-0.115953,-0.64443797,-0.103773,-0.27278709,-1.422273,-0.040087386
21067581830272,0.3758001,0,,0.0033830239,0.0020061687,0.00050590113,9.6724377,-0.46835199,1.347972,0.74865502,-0.115942,-0.64444101,-0.103766,-0.27273819,-1.4222762,-0.040110564
21067583837152,0.37780698,0,,0.0033830239,0.0020061687,0.00050590113,9.6724377,-0.46835199,1.347972,0.74865502,-0.115942,-0.64444101,-0.103766,-0.27273819,-1.4222762,-0.040110564
21067585814176,0.379784,0,,0.0033830239,0.0020061687,0.00050590113,9.6724377,-0.46835199,1.347972,0.74865502,-0.115942,-0.64444101,-0.103766,-0.27273819,-1.4222762,-0.040110564
21067587799904,0.38176973,0,,0.0044201161,0.0039814102,-0.0040553598,9.6989622,-0.417537,1.3436919,0.748658,-0.115937,-0.64443797,-0.103764,-0.27269505,-1.4222686,-0.04014226
21067589824480,0.3837943,0,,0.0044201161,0.0039814102,-0.0040553598,9.6989622,-0.417537,1.3436919,0.748658,-0.115937,-0.64443797,-0.103764,-0.27269505,-1.4222686,-0.04014226
21067591786816,0.38575664,0,,0.0046695586,0.001440106,0.0023902459,9.7865248,-0.30144101,1.343048,0.74865997,-0.115928,-0.64443797,-0.103762,-0.27261009,-1.422267,-0.040212351
21067593785344,0.38775517,0,,0.0046695586,0.001440106,0.0023902459,9.7865248,-0.30144101,1.343048,0.74865997,-0.115928,-0.64443797,-0.103762,-0.27261009,-1.422267,-0.040212351
21067595827776,0.3897976,0,,0.0046695586,0.001440106,0.0023902459,9.7865248,-0.30144101,1.343048,0.74865997,-0.115928,-0.64443797,-0.103762,-0.27261009,-1.422267,-0.040212351
21067598015264,0.39198509,0,,-0.0010708467,0.0035492143,0.0025105339,9.7548609,-0.40798599,1.356119,0.74866199,-0.115922,-0.64443797,-0.103757,-0.27259175,-1.4222638,-0.040215006
21067599783232,0.39375306,0,,-0.0010708467,0.0035492143,0.0025105339,9.7548609,-0.40798599,1.356119,0.74866199,-0.115922,-0.64443797,-0.103757,-0.27259175,-1.4222638,-0.040215006
21067601806464,0.39577629,0,,-0.0074702886,-0.0037472567,0.00044450044,9.7266312,-0.465693,1.350046,0.748658,-0.115936,-0.64443898,-0.103764,-0.27268173,-1.422269,-0.040155767
21067603850176,0.39782,0,,-0.0074702886,-0.0037472567,0.00044450044,9.7266312,-0.465693,1.350046,0.748658,-0.115936,-0.64443898,-0.103764,-0.27268173,-1.422269,-0.040155767
21067605816384,0.39978621,0,,-0.0074702886,-0.0037472567,0.00044450044,9.7266312,-0.465693,1.350046,0.748658,-0.115936,-0.64443898,-0.103764,-0.27268173,-1.422269,-0.040155767
21067607816256,0.40178608,0,,-0.0016695994,-0.0039759996,0.00087751665,9.7692776,-0.31441799,1.352844,0.74864501,-0.115955,-0.644449,-0.103774,-0.2728213,-1.4223005,-0.040057297
21067609811296,0.40378112,0,,-0.0016695994,-0.0039759996,0.00087751665,9.7692776,-0.31441799,1.352844,0.74864501,-0.115955,-0.644449,-0.103774,-0.2728213,-1.4223005,-0.040057297
21067611832096,0.40580192,0,,0.0043383126,0.0022054503,0.0013745515,9.7298765,-0.36605501,1.354557,0.74864101,-0.115952,-0.644454,-0.103772,-0.27281599,-1.4223146,-0.040054746
21067613811200,0.40778102,0,,0.0043383126,0.0022054503,0.0013745515,9.7298765,-0.36605501,1.354557,0.74864101,-0.115952,-0.644454,-0.103772,-0.27281599,-1.4223146,-0.040054746
21067615809984,0.40977981,0,,0.0043383126,0.0022054503,0.0013745515,9.7298765,-0.36605501,1.354557,0.74864101,-0.115952,-0.644454,-0.103772,-0.27281599,-1.4223146,-0.040054746
21067617967808,0.41193763,0,,0.0015520515,-0.001618025,-0.0030771375,9.6455374,-0.41538,1.337957,0.74864101,-0.115944,-0.64445597,-0.103769,-0.27276003,-1.4223178,-0.040095047
21067619843424,0.41381325,0,,0.0015520515,-0.001618025,-0.0030771375,9.6455374,-0.41538,1.337957,0.74864101,-0.115944,-0.64445597,-0.103769,-0.27276003,-1.4223178,-0.040095047
21067621848768,0.41581859,0,,0.0028964787,-0.0063329622,-0.0032151408,9.691102,-0.37885201,1.352897,0.748631,-0.115939,-0.64446801,-0.103775,-0.272682,-1.4223491,-0.040173569
21067623836352,0.41780618,0,,0.0028964787,-0.0063329622,-0.0032151408,9.691102,-0.37885201,1.352897,0.748631,-0.115939,-0.64446801,-0.103775,-0.272682,-1.4223491,-0.040173569
21067625836960,0.41980678,0,,0.0028964787,-0.0063329622,-0.0032151408,9.691102,-0.37885201,1.352897,0.748631,-0.115939,-0.64446801,-0.103775,-0.272682,-1.4223491,-0.040173569
21067627850688,0.42182051,0,,0.0046580394,-0.0017495006,-0.0011727391,9.6683731,-0.33594701,1.3385,0.748622,-0.115932,-0.64447999,-0.103774,-0.27264132,-1.4223806,-0.040202506
21067629832416,0.42380224,0,,0.0046580394,-0.0017495006,-0.0011727391,9.6683731,-0.33594701,1.3385,0.748622,-0.115932,-0.64447999,-0.103774,-0.27264132,-1.4223806,-0.040202506
21067631863616,0.42583344,0,,0.0017501988,-0.0020673251,0.0025528932,9.6752768,-0.383154,1.3453979,0.74861699,-0.115926,-0.64448798,-0.103769,-0.27263687,-1.4224009,-0.040191653
21067633818656,0.42778848,0,,0.0017501988,-0.0020673251,0.0025528932,9.6752768,-0.383154,1.3453979,0.74861699,-0.115926,-0.64448798,-0.103769,-0.27263687,-1.4224009,-0.040191653
21067635843584,0.42981341,0,,0.0017501988,-0.0020673251,0.0025528932,9.6752768,-0.383154,1.3453979,0.74861699,-0.115926,-0.64448798,-0.103769,-0.27263687,-1.4224009,-0.040191653
21067637998496,0.43196832,0,,0.00098679169,0.00055765013,0.00071438074,9.7012987,-0.42523399,1.366159,0.74861401,-0.115926,-0.64449197,-0.103768,-0.27265377,-1.4224097,-0.040172678
21067639831712,0.43380154,0,,0.00098679169,0.00055765013,0.00071438074,9.7012987,-0.42523399,1.366159,0.74861401,-0.115926,-0.64449197,-0.103768,-0.27265377,-1.4224097,-0.040172678
21067641794976,0.4357648,0,,0.0025663846,0.001238154,0.00021755529,9.7436113,-0.34851199,1.369777,0.74861401,-0.115927,-0.64449197,-0.103766,-0.27267785,-1.4224097,-0.040147095
21067643800736,0.43777056,0,,0.0025663846,0.001238154,0.00021755529,9.7436113,-0.34851199,1.369777,0.74861401,-0.115927,-0.64449197,-0.103766,-0.27267785,-1.4224097,-0.040147095
21067645830944,0.43980077,0,,0.0025663846,0.001238154,0.00021755529,9.7436113,-0.34851199,1.369777,0.74861401,-0.115927,-0.64449197,-0.103766,-0.27267785,-1.4224097,-0.040147095
21067647801760,0.44177158,0,,-0.00047013935,-2.1432644e-05,0.0019712621,9.7687206,-0.362333,1.3865499,0.74861401,-0.115922,-0.64449298,-0.103765,-0.27263579,-1.4224102,-0.040180813
21067649791968,0.44376179,0,,-0.00047013935,-2.1432644e-05,0.0019712621,9.7687206,-0.362333,1.3865499,0.74861401,-0.115922,-0.64449298,-0.103765,-0.27263579,-1.4224102,-0.040180813
21067651825184,0.44579501,0,,-0.0032076009,-0.003300505,0.0036865718,9.7391996,-0.40677398,1.41204,0.74860799,-0.115929,-0.64449698,-0.103768,-0.27270049,-1.4224251,-0.040130721
21067653823104,0.44779293,0,,-0.0032076009,-0.003300505,0.0036865718,9.7391996,-0.40677398,1.41204,0.74860799,-0.115929,-0.64449698,-0.103768,-0.27270049,-1.4224251,-0.040130721
21067655791616,0.44976144,0,,-0.0032076009,-0.003300505,0.0036865718,9.7391996,-0.40677398,1.41204,0.74860799,-0.115929,-0.64449698,-0.103768,-0.27270049,-1.4224251,-0.040130721
21067657981344,0.45195117,0,,0.00088290968,0.0012938475,-0.00063737676,9.7310009,-0.387557,1.412008,0.74860603,-0.115935,-0.64450002,-0.103766,-0.2727798,-1.4224298,-0.040055549
21067659825760,0.45379558,0,,0.00088290968,0.0012938475,-0.00063737676,9.7310009,-0.387557,1.412008,0.74860603,-0.115935,-0.64450002,-0.103766,-0.2727798,-1.4224298,-0.040055549
21067661820576,0.4557904,0,,-0.0047111845,-0.0012342793,0.001947386,9.7094736,-0.37905499,1.383884,0.74860501,-0.11594,-0.644499,-0.103771,-0.27278052,-1.4224295,-0.04007035
21067663814080,0.4577839,0,,-0.0047111845,-0.0012342793,0.001947386,9.7094736,-0.37905499,1.383884,0.74860501,-0.11594,-0.644499,-0.103771,-0.27278052,-1.4224295,-0.04007035
21067665809440,0.45977926,0,,-0.0047111845,-0.0012342793,0.001947386,9.7094736,-0.37905499,1.383884,0.74860501,-0.11594,-0.644499,-0.103771,-0.27278052,-1.4224295,-0.04007035
21067667809632,0.46177946,0,,-0.0035513261,-0.0013668197,0.00056243238,9.7324371,-0.33807701,1.38903,0.74860001,-0.115949,-0.64450198,-0.103778,-0.2728317,-1.4224421,-0.040041709
21067669794240,0.46376406,0,,-0.0035513261,-0.0013668197,0.00056243238,9.7324371,-0.33807701,1.38903,0.74860001,-0.115949,-0.64450198,-0.103778,-0.2728317,-1.4224421,-0.040041709
21067671815680,0.4657855,0,,-0.0020710774,-0.0038394624,0.0038642811,9.6831856,-0.45766899,1.41877,0.74859399,-0.115956,-0.644508,-0.103778,-0.27290695,-1.4224559,-0.039977481
21067673801152,0.46777098,0,,-0.0020710774,-0.0038394624,0.0038642811,9.6831856,-0.45766899,1.41877,0.74859399,-0.115956,-0.644508,-0.103778,-0.27290695,-1.4224559,-0.039977481
21067675804096,0.46977392,0,,-0.0020710774,-0.0038394624,0.0038642811,9.6831856,-0.45766899,1.41877,0.74859399,-0.115956,-0.644508,-0.103778,-0.27290695,-1.4224559,-0.039977481
21067678025184,0.47199501,0,,-0.0025537832,-0.0028242046,-0.0030879064,9.6708536,-0.46631101,1.4169329,0.74858898,-0.115968,-0.64451098,-0.10378,-0.27302331,-1.4224664,-0.039881278
21067679800576,0.4737704,0,,-0.0025537832,-0.0028242046,-0.0030879064,9.6708536,-0.46631101,1.4169329,0.74858898,-0.115968,-0.64451098,-0.10378,-0.27302331,-1.4224664,-0.039881278
21067681832032,0.47580186,0,,-2.3806291e-05,-0.002517585,-0.0014158111,9.7175274,-0.339636,1.402943,0.74858302,-0.115972,-0.64451599,-0.103789,-0.27300733,-1.4224834,-0.039914406
21067683796032,0.47776586,0,,-2.3806291e-05,-0.002517585,-0.0014158111,9.7175274,-0.339636,1.402943,0.74858302,-0.115972,-0.64451599,-0.103789,-0.27300733,-1.4224834,-0.039914406
21067685862272,0.4798321,0,,-2.3806291e-05,-0.002517585,-0.0014158111,9.7175274,-0.339636,1.402943,0.74858302,-0.115972,-0.64451599,-0.103789,-0.27300733,-1.4224834,-0.039914406
21067687839808,0.48180963,0,,0.0018488971,0.0011398047,0.0010637608,9.6457062,-0.370511,1.417316,0.74858099,-0.115967,-0.64451998,-0.103787,-0.27297095,-1.4224933,-0.039940255
21067689809248,0.48377907,0,,0.0018488971,0.0011398047,0.0010637608,9.6457062,-0.370511,1.417316,0.74858099,-0.115967,-0.64451998,-0.103787,-0.27297095,-1.4224933,-0.039940255
21067691792736,0.48576256,0,,0.0042032591,0.0080903167,0.0018820933,9.6697636,-0.437058,1.435768,0.74858999,-0.115961,-0.64451098,-0.103782,-0.27293175,-1.4224669,-0.039964585
21067693803488,0.48777331,0,,0.0042032591,0.0080903167,0.0018820933,9.6697636,-0.437058,1.435768,0.74858999,-0.115961,-0.64451098,-0.103782,-0.27293175,-1.4224669,-0.039964585
21067695830368,0.48980019,0,,0.0042032591,0.0080903167,0.0018820933,9.6697636,-0.437058,1.435768,0.74858999,-0.115961,-0.64451098,-0.103782,-0.27293175,-1.4224669,-0.039964585
21067697950784,0.49192061,0,,0.0033366158,0.0016600001,-0.00076003854,9.7133121,-0.403483,1.446893,0.74860001,-0.115955,-0.64450097,-0.103778,-0.27289353,-1.4224395,-0.039989369
21067699790144,0.49375997,0,,0.0033366158,0.0016600001,-0.00076003854,9.7133121,-0.403483,1.446893,0.74860001,-0.115955,-0.64450097,-0.103778,-0.27289353,-1.4224395,-0.039989369
21067701819840,0.49578966,0,,0.0013721605,0.0043502856,-0.00018748327,9.7192259,-0.39458299,1.416278,0.74860603,-0.115949,-0.64449501,-0.103776,-0.27282987,-1.422423,-0.040039965
21067703812960,0.49778278,0,,0.0013721605,0.0043502856,-0.00018748327,9.7192259,-0.39458299,1.416278,0.74860603,-0.115949,-0.64449501,-0.103776,-0.27282987,-1.422423,-0.040039965
21067705788160,0.49975798,0,,0.0013721605,0.0043502856,-0.00018748327,9.7192259,-0.39458299,1.416278,0.74860603,-0.115949,-0.64449501,-0.103776,-0.27282987,-1.422423,-0.040039965
21067707821088,0.50179091,0,,0.0068314108,0.0026435804,0.0015392756,9.8017712,-0.42286399,1.429255,0.74861199,-0.115941,-0.64449,-0.103772,-0.27277486,-1.4224073,-0.040078852
21067709820224,0.50379005,0,,0.0068314108,0.0026435804,0.0015392756,9.8017712,-0.42286399,1.429255,0.74861199,-0.115941,-0.64449,-0.103772,-0.27277486,-1.4224073,-0.040078852
21067711818208,0.50578803,0,,0.0066736154,-0.0006014579,0.0013636606,9.7192011,-0.453394,1.440371,0.74861699,-0.11593,-0.64448899,-0.103757,-0.27278438,-1.4223985,-0.040031884
21067713779328,0.50774915,0,,0.0066736154,-0.0006014579,0.0013636606,9.7192011,-0.453394,1.440371,0.74861699,-0.11593,-0.64448899,-0.103757,-0.27278438,-1.4223985,-0.040031884
21067715819616,0.50978944,0,,0.0066736154,-0.0006014579,0.0013636606,9.7192011,-0.453394,1.440371,0.74861699,-0.11593,-0.64448899,-0.103757,-0.27278438,-1.4223985,-0.040031884
21067717968480,0.5119383,0,,0.0041001799,0.0072446699,-0.00071446799,9.6899462,-0.39674801,1.4246039,0.74862403,-0.115922,-0.64448297,-0.103751,-0.2727415,-1.4223786,-0.040055308
21067719835424,0.51380525,0,,0.0041001799,0.0072446699,-0.00071446799,9.6899462,-0.39674801,1.4246039,0.74862403,-0.115922,-0.64448297,-0.103751,-0.2727415,-1.4223786,-0.040055308
21067721868096,0.51583792,0,,0.0056790048,0.0058371487,-0.00048528881,9.7271585,-0.42324999,1.4219,0.74863899,-0.115908,-0.64446801,-0.103748,-0.27259188,-1.4223395,-0.040180393
21067723839904,0.51780973,0,,0.0056790048,0.0058371487,-0.00048528881,9.7271585,-0.42324999,1.4219,0.74863899,-0.115908,-0.64446801,-0.103748,-0.27259188,-1.4223395,-0.040180393
21067725795552,0.51976538,0,,0.0056790048,0.0058371487,-0.00048528881,9.7271585,-0.42324999,1.4219,0.74863899,-0.115908,-0.64446801,-0.103748,-0.27259188,-1.4223395,-0.040180393
21067727806464,0.52177629,0,,-0.00017371261,-0.00071059334,0.0026122692,9.7119131,-0.39744699,1.422438,0.74864298,-0.115905,-0.64446598,-0.103744,-0.27259478,-1.4223318,-0.040168929
21067729804608,0.52377443,0,,-0.00017371261,-0.00071059334,0.0026122692,9.7119131,-0.39744699,1.422438,0.74864298,-0.115905,-0.64446598,-0.103744,-0.27259478,-1.4223318,-0.040168929
21067731807488,0.52577731,0,,-0.0019556764,-7.9726638e-05,0.0014021277,9.6643438,-0.402803,1.422814,0.74864203,-0.115912,-0.64446497,-0.103744,-0.27266337,-1.4223307,-0.040109045
21067733795680,0.5277655,0,,-0.0019556764,-7.9726638e-05,0.0014021277,9.6643438,-0.402803,1.422814,0.74864203,-0.115912,-0.64446497,-0.103744,-0.27266337,-1.4223307,-0.040109045
21067735863200,0.52983302,0,,-0.0019556764,-7.9726638e-05,0.0014021277,9.6643438,-0.402803,1.422814,0.74864203,-0.115912,-0.64446497,-0.103744,-0.27266337,-1.4223307,-0.040109045
21067738031456,0.53200128,0,,-0.0051374115,0.00062556094,-0.0015343713,9.6114712,-0.35454801,1.400996,0.74864,-0.11592,-0.64446497,-0.103751,-0.27268396,-1.4223326,-0.040110477
21067739807968,0.53377779,0,,-0.0051374115,0.00062556094,-0.0015343713,9.6114712,-0.35454801,1.400996,0.74864,-0.11592,-0.64446497,-0.103751,-0.27268396,-1.4223326,-0.040110477
21067741842592,0.53581242,0,,-0.002554778,0.00379836,0.00013891075,9.7090216,-0.43239999,1.4001139,0.74864203,-0.115922,-0.64446002,-0.10376,-0.27261452,-1.4223239,-0.040196851
21067743822912,0.53779274,0,,-0.002554778,0.00379836,0.00013891075,9.7090216,-0.43239999,1.4001139,0.74864203,-0.115922,-0.64446002,-0.10376,-0.27261452,-1.4223239,-0.040196851
21067745829952,0.53979978,0,,-0.002554778,0.00379836,0.00013891075,9.7090216,-0.43239999,1.4001139,0.74864203,-0.115922,-0.64446002,-0.10376,-0.27261452,-1.4223239,-0.040196851
21067747830240,0.54180006,0,,-0.0012393932,0.001743741,0.00067603584,9.7765112,-0.396624,1.42748,0.74864501,-0.115928,-0.64445502,-0.103765,-0.27262292,-1.4223118,-0.040203783
21067749815360,0.54378518,0,,-0.0012393932,0.001743741,0.00067603584,9.7765112,-0.396624,1.42748,0.74864501,-0.115928,-0.64445502,-0.103765,-0.27262292,-1.4223118,-0.040203783
21067751837824,0.54580765,0,,-0.0036849486,0.002746485,0.00060412828,9.7032404,-0.351509,1.404083,0.748649,-0.115933,-0.644449,-0.103768,-0.27263276,-1.4222993,-0.040205472
21067753822656,0.54779248,0,,-0.0036849486,0.002746485,0.00060412828,9.7032404,-0.351509,1.404083,0.748649,-0.115933,-0.644449,-0.103768,-0.27263276,-1.4222993,-0.040205472
21067755798752,0.54976858,0,,-0.0036849486,0.002746485,0.00060412828,9.7032404,-0.351509,1.404083,0.748649,-0.115933,-0.644449,-0.103768,-0.27263276,-1.4222993,-0.040205472
21067758051424,0.55202125,0,,-0.0042093503,-4.0578905e-05,0.00035634386,9.7041826,-0.41531301,1.3862619,0.748649,-0.115937,-0.64444697,-0.103777,-0.27259609,-1.4222969,-0.040260329
21067759793248,0.55376307,0,,-0.0042093503,-4.0578905e-05,0.00035634386,9.7041826,-0.41531301,1.3862619,0.748649,-0.115937,-0.64444697,-0.103777,-0.27259609,-1.4222969,-0.040260329
21067761786656,0.55575648,0,,0.0015929794,-0.0010843731,-0.0065796994,9.8159685,-0.42338601,1.408411,0.74864501,-0.115936,-0.64445001,-0.103789,-0.27249631,-1.4223081,-0.04037589
21067763818336,0.55778816,0,,0.0015929794,-0.0010843731,-0.0065796994,9.8159685,-0.42338601,1.408411,0.74864501,-0.115936,-0.64445001,-0.103789,-0.27249631,-1.4223081,-0.04037589
21067765812192,0.55978202,0,,0.0015929794,-0.0010843731,-0.0065796994,9.8159685,-0.42338601,1.408411,0.74864501,-0.115936,-0.64445001,-0.103789,-0.27249631,-1.4223081,-0.04037589
21067767778656,0.56174848,0,,0.00022862068,-0.0013820216,-0.0024223949,9.7437439,-0.33852801,1.393428,0.74864,-0.115927,-0.64445597,-0.103799,-0.27232693,-1.4223259,-0.040546286
21067769807744,0.56377757,0,,0.00022862068,-0.0013820216,-0.0024223949,9.7437439,-0.33852801,1.393428,0.74864,-0.115927,-0.64445597,-0.103799,-0.27232693,-1.4223259,-0.040546286
21067771812032,0.56578186,0,,0.0042904381,-0.00030721286,0.00023424064,9.6224709,-0.352438,1.336568,0.74863702,-0.115919,-0.64446002,-0.1038,-0.27224262,-1.4223383,-0.040621945
21067773774144,0.56774397,0,,0.0042904381,-0.00030721286,0.00023424064,9.6224709,-0.352438,1.336568,0.74863702,-0.115919,-0.64446002,-0.1038,-0.27224262,-1.4223383,-0.040621945
21067775774304,0.56974413,0,,0.0042904381,-0.00030721286,0.00023424064,9.6224709,-0.352438,1.336568,0.74863702,-0.115919,-0.64446002,-0.1038,-0.27224262,-1.4223383,-0.040621945
21067778063712,0.57203354,0,,0.011701316,0.0046402544,0.0049009893,9.6967087,-0.37793899,1.376305,0.74864203,-0.115905,-0.64445901,-0.103786,-0.27221173,-1.4223298,-0.040612225
21067779850496,0.57382032,0,,0.011701316,0.0046402544,0.0049009893,9.6967087,-0.37793899,1.376305,0.74864203,-0.115905,-0.64445901,-0.103786,-0.27221173,-1.4223298,-0.040612225
21067781787008,0.57575683,0,,0.008388262,0.00488762,-0.00043444737,9.6988325,-0.398635,1.366951,0.74865001,-0.115891,-0.64445502,-0.10377,-0.27219772,-1.4223118,-0.040581627
21067783770976,0.5777408,0,,0.008388262,0.00488762,-0.00043444737,9.6988325,-0.398635,1.366951,0.74865001,-0.115891,-0.64445502,-0.10377,-0.27219772,-1.4223118,-0.040581627
21067785819328,0.57978915,0,,0.008388262,0.00488762,-0.00043444737,9.6988325,-0.398635,1.366951,0.74865001,-0.115891,-0.64445502,-0.10377,-0.27219772,-1.4223118,-0.040581627
21067787844704,0.58181453,0,,0.0068954993,0.0041061489,-0.0028940002,9.718214,-0.397154,1.345613,0.74865699,-0.115873,-0.64445102,-0.103763,-0.27207371,-1.4222993,-0.040670847
21067789846144,0.58381597,0,,0.0068954993,0.0041061489,-0.0028940002,9.718214,-0.397154,1.345613,0.74865699,-0.115873,-0.64445102,-0.103763,-0.27207371,-1.4222993,-0.040670847
21067791798560,0.58576838,0,,0.0027019967,0.0058042493,0.00095661494,9.7161369,-0.347287,1.354984,0.74866301,-0.115865,-0.64444602,-0.103762,-0.27197902,-1.4222838,-0.04075316
21067793793312,0.58776314,0,,0.0027019967,0.0058042493,0.00095661494,9.7161369,-0.347287,1.354984,0.74866301,-0.115865,-0.64444602,-0.103762,-0.27197902,-1.4222838,-0.04075316
21067795792736,0.58976256,0,,0.0027019967,0.0058042493,0.00095661494,9.7161369,-0.347287,1.354984,0.74866301,-0.115865,-0.64444602,-0.103762,-0.27197902,-1.4222838,-0.04075316
21067797952224,0.59192205,0,,0.00067683868,-0.00054672441,-0.00011255628,9.71527,-0.42100701,1.357519,0.74866599,-0.11586,-0.64444399,-0.103761,-0.27192969,-1.4222788,-0.040793161
21067799791904,0.59376173,0,,0.00067683868,-0.00054672441,-0.00011255628,9.71527,-0.42100701,1.357519,0.74866599,-0.11586,-0.64444399,-0.103761,-0.27192969,-1.4222788,-0.040793161
21067801788768,0.59575859,0,,0.0022424513,-0.002109754,-0.0036277193,9.7276106,-0.399169,1.351034,0.74865997,-0.115858,-0.64445001,-0.103766,-0.27188443,-1.4222949,-0.040843254
21067803825184,0.59779501,0,,0.0022424513,-0.002109754,-0.0036277193,9.7276106,-0.399169,1.351034,0.74865997,-0.115858,-0.64445001,-0.103766,-0.27188443,-1.4222949,-0.040843254
21067805796096,0.59976592,0,,0.0022424513,-0.002109754,-0.0036277193,9.7276106,-0.399169,1.351034,0.74865997,-0.115858,-0.64445001,-0.103766,-0.27188443,-1.4222949,-0.040843254
21067807825792,0.60179562,0,,0.0041885982,0.0010738313,-0.00034135149,9.7319517,-0.30589801,1.349357,0.74865597,-0.11585,-0.64445698,-0.103768,-0.27179688,-1.4223138,-0.040921006
21067809784320,0.60375414,0,,0.0041885982,0.0010738313,-0.00034135149,9.7319517,-0.30589801,1.349357,0.74865597,-0.11585,-0.64445698,-0.103768,-0.27179688,-1.4223138,-0.040921006
21067811810912,0.60578074,0,,0.0030606618,0.0042539083,0.0044077766,9.7132597,-0.46886998,1.362849,0.748658,-0.115842,-0.64445597,-0.103762,-0.27176009,-1.4223106,-0.040938162
21067813817056,0.60778688,0,,0.0030606618,0.0042539083,0.0044077766,9.7132597,-0.46886998,1.362849,0.748658,-0.115842,-0.64445597,-0.103762,-0.27176009,-1.4223106,-0.040938162
21067815788544,0.60975837,0,,0.0030606618,0.0042539083,0.0044077766,9.7132597,-0.46886998,1.362849,0.748658,-0.115842,-0.64445597,-0.103762,-0.27176009,-1.4223106,-0.040938162
21067817971616,0.61194144,0,,0.0030011636,0.0016020901,-0.00092340137,9.7045135,-0.382328,1.3600791,0.74866199,-0.115843,-0.64445198,-0.103755,-0.27181985,-1.4222973,-0.040870164
21067819836192,0.61380602,0,,0.0030011636,0.0016020901,-0.00092340137,9.7045135,-0.382328,1.3600791,0.74866199,-0.115843,-0.64445198,-0.103755,-0.27181985,-1.4222973,-0.040870164
21067821983648,0.61595347,0,,-5.5169859e-05,0.00085760243,0.0005403365,9.7649345,-0.36537099,1.367456,0.74866098,-0.115841,-0.64445299,-0.103758,-0.27178488,-1.4223005,-0.0409061
21067823810560,0.61778038,0,,-5.5169859e-05,0.00085760243,0.0005403365,9.7649345,-0.36537099,1.367456,0.74866098,-0.115841,-0.64445299,-0.103758,-0.27178488,-1.4223005,-0.0409061
21067825801760,0.61977158,0,,-5.5169859e-05,0.00085760243,0.0005403365,9.7649345,-0.36537099,1.367456,0.74866098,-0.115841,-0.64445299,-0.103758,-0.27178488,-1.4223005,-0.0409061
21067827844672,0.6218145,0,,-0.0077577617,-0.0019812977,0.002037445,9.7177639,-0.448028,1.362487,0.74865901,-0.115849,-0.644454,-0.103763,-0.27182351,-1.4223034,-0.040886364
21067829814176,0.623784,0,,-0.0077577617,-0.0019812977,0.002037445,9.7177639,-0.448028,1.362487,0.74865901,-0.115849,-0.644454,-0.103763,-0.27182351,-1.4223034,-0.040886364
21067831820896,0.62579072,0,,-0.0035929523,-0.0020510935,-0.00079351394,9.7197514,-0.392349,1.365593,0.74865001,-0.115869,-0.64445901,-0.103774,-0.27194027,-1.422323,-0.040813913
21067833843072,0.6278129,0,,-0.0035929523,-0.0020510935,-0.00079351394,9.7197514,-0.392349,1.365593,0.74865001,-0.115869,-0.64445901,-0.103774,-0.27194027,-1.422323,-0.040813913
21067835845312,0.62981514,0,,-0.0035929523,-0.0020510935,-0.00079351394,9.7197514,-0.392349,1.365593,0.74865001,-0.115869,-0.64445901,-0.103774,-0.27194027,-1.422323,-0.040813913
21067837991776,0.6319616,0,,-0.0036162349,-0.00034581953,-0.002154958,9.716258,-0.41468599,1.3842551,0.74864501,-0.115874,-0.64446199,-0.103784,-0.27191487,-1.4223351,-0.040860306
21067839815648,0.63378547,0,,-0.0036162349,-0.00034581953,-0.002154958,9.716258,-0.41468599,1.3842551,0.74864501,-0.115874,-0.64446199,-0.103784,-0.27191487,-1.4223351,-0.040860306
21067841812704,0.63578253,0,,0.0017723295,-0.002734669,-0.0001532399,9.6533604,-0.36603099,1.3728499,0.74864101,-0.115875,-0.64446598,-0.103789,-0.27188897,-1.4223468,-0.040894653
21067843849056,0.63781888,0,,0.0017723295,-0.002734669,-0.0001532399,9.6533604,-0.36603099,1.3728499,0.74864101,-0.115875,-0.64446598,-0.103789,-0.27188897,-1.4223468,-0.040894653
21067845835968,0.63980579,0,,0.0017723295,-0.002734669,-0.0001532399,9.6533604,-0.36603099,1.3728499,0.74864101,-0.115875,-0.64446598,-0.103789,-0.27188897,-1.4223468,-0.040894653
21067847799680,0.6417695,0,,-0.0024877922,-0.00099122485,0.00092673494,9.7246094,-0.37082499,1.387706,0.74863601,-0.115876,-0.64447099,-0.103788,-0.27192023,-1.4223605,-0.040863061
21067849795296,0.64376512,0,,-0.0024877922,-0.00099122485,0.00092673494,9.7246094,-0.37082499,1.387706,0.74863601,-0.115876,-0.64447099,-0.103788,-0.27192023,-1.4223605,-0.040863061
21067851796256,0.64576608,0,,-9.5469506e-06,-0.0029492574,0.0030614295,9.6537895,-0.39977601,1.390497,0.748631,-0.11588,-0.64447701,-0.103789,-0.27196364,-1.4223762,-0.040827579
21067853847616,0.64781744,0,,-9.5469506e-06,-0.0029492574,0.0030614295,9.6537895,-0.39977601,1.390497,0.748631,-0.11588,-0.64447701,-0.103789,-0.27196364,-1.4223762,-0.040827579
21067855795968,0.64976579,0,,-9.5469506e-06,-0.0029492574,0.0030614295,9.6537895,-0.39977601,1.390497,0.748631,-0.11588,-0.64447701,-0.103789,-0.27196364,-1.4223762,-0.040827579
21067857948416,0.65191824,0,,0.0031030035,-0.005058069,-0.0014898828,9.6955681,-0.370038,1.391229,0.74862301,-0.11588,-0.64448702,-0.103786,-0.27201176,-1.4224003,-0.04077541
21067859791168,0.65376099,0,,0.0031030035,-0.005058069,-0.0014898828,9.6955681,-0.370038,1.391229,0.74862301,-0.11588,-0.64448702,-0.103786,-0.27201176,-1.4224003,-0.04077541
21067861782304,0.65575213,0,,0.0031030035,-0.005058069,-0.0014898828,9.6955681,-0.370038,1.391229,0.74862301,-0.11588,-0.64448702,-0.103786,-0.27201176,-1.4224003,-0.04077541
21067863820512,0.65779034,0,,0.0031030035,-0.005058069,-0.0014898828,9.6955681,-0.370038,1.391229,0.74862301,-0.11588,-0.64448702,-0.103786,-0.27201176,-1.4224003,-0.04077541
21067865780384,0.65975021,0,,0.0031030035,-0.005058069,-0.0014898828,9.6955681,-0.370038,1.391229,0.74862301,-0.11588,-0.64448702,-0.103786,-0.27201176,-1.4224003,-0.04077541
21067867778432,0.66174826,0,,-0.0031896067,-0.0021109409,0.0016407143,9.7237463,-0.45275101,1.4055409,0.74861199,-0.115887,-0.644499,-0.103779,-0.27216516,-1.4224298,-0.040620655
21067869846144,0.66381597,0,,-0.0031896067,-0.0021109409,0.0016407143,9.7237463,-0.45275101,1.4055409,0.74861199,-0.115887,-0.644499,-0.103779,-0.27216516,-1.4224298,-0.040620655
21067871791712,0.66576154,0,,-5.7421333e-06,0.0023583761,-0.0009536828,9.7559652,-0.37018901,1.429173,0.74861002,-0.115894,-0.644499,-0.103784,-0.27220378,-1.422431,-0.040599691
21067873776192,0.66774602,0,,-5.7421333e-06,0.0023583761,-0.0009536828,9.7559652,-0.37018901,1.429173,0.74861002,-0.115894,-0.644499,-0.103784,-0.27220378,-1.422431,-0.040599691
21067875809888,0.66977971,0,,-5.7421333e-06,0.0023583761,-0.0009536828,9.7559652,-0.37018901,1.429173,0.74861002,-0.115894,-0.644499,-0.103784,-0.27220378,-1.422431,-0.040599691
21067877962112,0.67193194,0,,0.0028346068,0.0025175327,0.00062482785,9.7000427,-0.34980401,1.426283,0.74861699,-0.11589,-0.64449197,-0.103783,-0.27215036,-1.4224136,-0.040646692
21067879779776,0.6737496,0,,0.0028346068,0.0025175327,0.00062482785,9.7000427,-0.34980401,1.426283,0.74861699,-0.11589,-0.64449197,-0.103783,-0.27215036,-1.4224136,-0.040646692
21067881813536,0.67578336,0,,-0.0019467578,-0.0034471299,0.002031633,9.7069874,-0.4269,1.431363,0.74861598,-0.115889,-0.64449298,-0.103779,-0.27217699,-1.4224158,-0.040613165
21067883806112,0.67777594,0,,-0.0019467578,-0.0034471299,0.002031633,9.7069874,-0.4269,1.431363,0.74861598,-0.115889,-0.64449298,-0.103779,-0.27217699,-1.4224158,-0.040613165
21067885807936,0.67977776,0,,-0.0019467578,-0.0034471299,0.002031633,9.7069874,-0.4269,1.431363,0.74861598,-0.115889,-0.64449298,-0.103779,-0.27217699,-1.4224158,-0.040613165
21067887779072,0.6817489,0,,-0.002835968,-0.0045688354,-0.0028435952,9.6655188,-0.32655701,1.415476,0.74861002,-0.115897,-0.644499,-0.103786,-0.27221065,-1.4224322,-0.040599554
21067889802400,0.68377222,0,,-0.002835968,-0.0045688354,-0.0028435952,9.6655188,-0.32655701,1.415476,0.74861002,-0.115897,-0.644499,-0.103786,-0.27221065,-1.4224322,-0.040599554
21067891817920,0.68578774,0,,-0.00036793287,-0.001161377,-7.1279245e-05,9.7307129,-0.38279799,1.4404219,0.74860299,-0.115894,-0.64450598,-0.103795,-0.2721199,-1.4224556,-0.040698686
21067893765632,0.68773546,0,,-0.00036793287,-0.001161377,-7.1279245e-05,9.7307129,-0.38279799,1.4404219,0.74860299,-0.115894,-0.64450598,-0.103795,-0.2721199,-1.4224556,-0.040698686
21067895771200,0.68974102,0,,-0.00036793287,-0.001161377,-7.1279245e-05,9.7307129,-0.38279799,1.4404219,0.74860299,-0.115894,-0.64450598,-0.103795,-0.2721199,-1.4224556,-0.040698686
21067897954976,0.6919248,0,,0.000178617,-0.00060337777,0.0017956122,9.6794796,-0.41702399,1.436955,0.748604,-0.115895,-0.64450502,-0.103792,-0.27215116,-1.4224515,-0.040664285
21067899794144,0.69376397,0,,0.000178617,-0.00060337777,0.0017956122,9.6794796,-0.41702399,1.436955,0.748604,-0.115895,-0.64450502,-0.103792,-0.27215116,-1.4224515,-0.040664285
21067901824608,0.69579443,0,,-0.0023082327,-0.0042701575,-0.00019881045,9.7172766,-0.38377699,1.4269969,0.74860001,-0.115899,-0.644508,-0.103795,-0.27217979,-1.4224617,-0.040645647
21067903798464,0.69776829,0,,-0.0023082327,-0.0042701575,-0.00019881045,9.7172766,-0.38377699,1.4269969,0.74860001,-0.115899,-0.644508,-0.103795,-0.27217979,-1.4224617,-0.040645647
21067905790560,0.69976038,0,,-0.0023082327,-0.0042701575,-0.00019881045,9.7172766,-0.38377699,1.4269969,0.74860001,-0.115899,-0.644508,-0.103795,-0.27217979,-1.4224617,-0.040645647
21067907787744,0.70175757,0,,-0.0023726529,-0.00089311987,0.0043672851,9.6549702,-0.32491499,1.427596,0.748595,-0.115908,-0.64451301,-0.103795,-0.27227814,-1.4224729,-0.040561138
21067909788544,0.70375837,0,,-0.0023726529,-0.00089311987,0.0043672851,9.6549702,-0.32491499,1.427596,0.748595,-0.115908,-0.64451301,-0.103795,-0.27227814,-1.4224729,-0.040561138
21067911830976,0.7058008,0,,-0.000658792,0.0055712134,0.0019927645,9.732583,-0.46633601,1.4318449,0.74860001,-0.11591,-0.64450598,-0.103794,-0.27229084,-1.4224544,-0.040549095
21067913789216,0.70775904,0,,-0.000658792,0.0055712134,0.0019927645,9.732583,-0.46633601,1.4318449,0.74860001,-0.11591,-0.64450598,-0.103794,-0.27229084,-1.4224544,-0.040549095
21067915785824,0.70975565,0,,-0.000658792,0.0055712134,0.0019927645,9.732583,-0.46633601,1.4318449,0.74860001,-0.11591,-0.64450598,-0.103794,-0.27229084,-1.4224544,-0.040549095
21067917980032,0.71194986,0,,0.0024185552,0.0069591166,-0.0014186385,9.6881609,-0.38317499,1.4197201,0.74861097,-0.11591,-0.644494,-0.103794,-0.27227212,-1.4224238,-0.040568748
21067919843648,0.71381347,0,,0.0024185552,0.0069591166,-0.0014186385,9.6881609,-0.38317499,1.4197201,0.74861097,-0.11591,-0.644494,-0.103794,-0.27227212,-1.4224238,-0.040568748
21067921857152,0.71582698,0,,-0.0017329374,-0.00072668531,-0.00029609511,9.7513714,-0.365695,1.4352,0.74861503,-0.115907,-0.64448798,-0.103801,-0.27216671,-1.4224108,-0.040680119
21067923814432,0.71778426,0,,-0.0017329374,-0.00072668531,-0.00029609511,9.7513714,-0.365695,1.4352,0.74861503,-0.115907,-0.64448798,-0.103801,-0.27216671,-1.4224108,-0.040680119
21067925841056,0.71981088,0,,-0.0017329374,-0.00072668531,-0.00029609511,9.7513714,-0.365695,1.4352,0.74861503,-0.115907,-0.64448798,-0.103801,-0.27216671,-1.4224108,-0.040680119
21067927807456,0.72177728,0,,0.0009524611,-0.0021969506,0.002005872,9.6635351,-0.41255599,1.419432,0.74861199,-0.115908,-0.64449102,-0.103802,-0.27217902,-1.4224192,-0.040671126
21067929828768,0.72379859,0,,0.0009524611,-0.0021969506,0.002005872,9.6635351,-0.41255599,1.419432,0.74861199,-0.115908,-0.64449102,-0.103802,-0.27217902,-1.4224192,-0.040671126
21067931845312,0.72581514,0,,0.003750381,0.0026234917,3.0403635e-05,9.7224483,-0.40896201,1.409903,0.74861503,-0.115906,-0.64448899,-0.103797,-0.27219407,-1.4224126,-0.040645036
21067933836512,0.72780634,0,,0.003750381,0.0026234917,3.0403635e-05,9.7224483,-0.40896201,1.409903,0.74861503,-0.115906,-0.64448899,-0.103797,-0.27219407,-1.4224126,-0.040645036
21067935806400,0.72977622,0,,0.003750381,0.0026234917,3.0403635e-05,9.7224483,-0.40896201,1.409903,0.74861503,-0.115906,-0.64448899,-0.103797,-0.27219407,-1.4224126,-0.040645036
21067937991040,0.73196086,0,,-0.0024182059,-0.00072043702,0.0017511936,9.7627296,-0.37359801,1.41909,0.74861699,-0.115907,-0.64448702,-0.103796,-0.27220689,-1.4224073,-0.040632785
21067939817728,0.73378755,0,,-0.0024182059,-0.00072043702,0.0017511936,9.7627296,-0.37359801,1.41909,0.74861699,-0.115907,-0.64448702,-0.103796,-0.27220689,-1.4224073,-0.040632785
21067941784064,0.73575389,0,,-0.0065199739,-0.00069041736,-0.00019977039,9.7217598,-0.44785899,1.415265,0.748613,-0.115916,-0.64448798,-0.103803,-0.27224309,-1.4224134,-0.040620218
21067943805760,0.73777558,0,,-0.0065199739,-0.00069041736,-0.00019977039,9.7217598,-0.44785899,1.415265,0.748613,-0.115916,-0.64448798,-0.103803,-0.27224309,-1.4224134,-0.040620218
21067945831712,0.73980154,0,,-0.0065199739,-0.00069041736,-0.00019977039,9.7217598,-0.44785899,1.415265,0.748613,-0.115916,-0.64448798,-0.103803,-0.27224309,-1.4224134,-0.040620218
21067947808544,0.74177837,0,,-0.0085105047,-0.0013490174,0.00028845058,9.7053785,-0.43638399,1.389595,0.74860901,-0.115935,-0.64448702,-0.103816,-0.27232525,-1.4224146,-0.040584261
21067949790176,0.74376,0,,-0.0085105047,-0.0013490174,0.00028845058,9.7053785,-0.43638399,1.389595,0.74860901,-0.115935,-0.64448702,-0.103816,-0.27232525,-1.4224146,-0.040584261
21067951794208,0.74576403,0,,0.0035678718,-0.00041053636,-0.0025618816,9.7214975,-0.36788899,1.386533,0.74860603,-0.115938,-0.64448798,-0.103827,-0.27226684,-1.4224222,-0.040662629
21067953796800,0.74776662,0,,0.0035678718,-0.00041053636,-0.0025618816,9.7214975,-0.36788899,1.386533,0.74860603,-0.115938,-0.64448798,-0.103827,-0.27226684,-1.4224222,-0.040662629
21067955801056,0.74977088,0,,0.0035678718,-0.00041053636,-0.0025618816,9.7214975,-0.36788899,1.386533,0.74860603,-0.115938,-0.64448798,-0.103827,-0.27226684,-1.4224222,-0.040662629
21067957952160,0.75192198,0,,0.00040266492,-0.00062606704,0.0020460494,9.7084303,-0.40549201,1.401243,0.74860603,-0.115931,-0.64449102,-0.103823,-0.27223285,-1.4224286,-0.040678754
21067959786496,0.75375632,0,,0.00040266492,-0.00062606704,0.0020460494,9.7084303,-0.40549201,1.401243,0.74860603,-0.115931,-0.64449102,-0.103823,-0.27223285,-1.4224286,-0.040678754
21067961844512,0.75581434,0,,-0.0060651236,-0.0020082281,-0.00056782541,9.6826591,-0.436259,1.369277,0.74860102,-0.115941,-0.64449501,-0.103827,-0.27230647,-1.4224387,-0.04062683
21067963793888,0.75776371,0,,-0.0060651236,-0.0020082281,-0.00056782541,9.6826591,-0.436259,1.369277,0.74860102,-0.115941,-0.64449501,-0.103827,-0.27230647,-1.4224387,-0.04062683
21067965805760,0.75977558,0,,-0.0060651236,-0.0020082281,-0.00056782541,9.6826591,-0.436259,1.369277,0.74860102,-0.115941,-0.64449501,-0.103827,-0.27230647,-1.4224387,-0.04062683
21067967788576,0.7617584,0,,-0.0048361679,-0.0037114078,-0.0011756538,9.6734972,-0.36143401,1.358357,0.74859297,-0.115955,-0.644499,-0.103839,-0.27236285,-1.4224556,-0.040607423
21067969815392,0.76378522,0,,-0.0048361679,-0.0037114078,-0.0011756538,9.6734972,-0.36143401,1.358357,0.74859297,-0.115955,-0.644499,-0.103839,-0.27236285,-1.4224556,-0.040607423
21067971783872,0.7657537,0,,-0.00088591165,-0.0047828131,0.0010450682,9.6750174,-0.34359899,1.3767689,0.74858201,-0.115959,-0.64450997,-0.103844,-0.27237994,-1.422485,-0.040602675
21067973779904,0.76774973,0,,-0.00088591165,-0.0047828131,0.0010450682,9.6750174,-0.34359899,1.3767689,0.74858201,-0.115959,-0.64450997,-0.103844,-0.27237994,-1.422485,-0.040602675
21067975824960,0.76979478,0,,-0.00088591165,-0.0047828131,0.0010450682,9.6750174,-0.34359899,1.3767689,0.74858201,-0.115959,-0.64450997,-0.103844,-0.27237994,-1.422485,-0.040602675
21067977950048,0.77191987,0,,-0.0049103619,-0.0032864724,-0.0022999949,9.7406101,-0.462208,1.36757,0.74857402,-0.115964,-0.64451802,-0.103851,-0.27238722,-1.4225102,-0.040612187
21067979792288,0.77376211,0,,-0.0049103619,-0.0032864724,-0.0022999949,9.7406101,-0.462208,1.36757,0.74857402,-0.115964,-0.64451802,-0.103851,-0.27238722,-1.4225102,-0.040612187
21067981828192,0.77579802,0,,0.0019305785,0.00024469516,-0.00029939379,9.7405767,-0.36206001,1.367978,0.74857002,-0.115969,-0.64451998,-0.103856,-0.27240418,-1.422519,-0.040609237
21067983779040,0.77774886,0,,0.0019305785,0.00024469516,-0.00029939379,9.7405767,-0.36206001,1.367978,0.74857002,-0.115969,-0.64451998,-0.103856,-0.27240418,-1.422519,-0.040609237
21067985801376,0.7797712,0,,0.0019305785,0.00024469516,-0.00029939379,9.7405767,-0.36206001,1.367978,0.74857002,-0.115969,-0.64451998,-0.103856,-0.27240418,-1.422519,-0.040609237
21067987844064,0.78181389,0,,0.0021277309,0.001059921,-0.00086130251,9.759697,-0.376825,1.362729,0.74857002,-0.115961,-0.64452201,-0.103856,-0.27232363,-1.4225234,-0.040678928
21067989842240,0.78381206,0,,0.0021277309,0.001059921,-0.00086130251,9.759697,-0.376825,1.362729,0.74857002,-0.115961,-0.64452201,-0.103856,-0.27232363,-1.4225234,-0.040678928
21067991801312,0.78577114,0,,-0.0012988042,0.0010999414,0.00098127649,9.7311134,-0.425598,1.352298,0.74856901,-0.11596,-0.64452302,-0.103858,-0.2722964,-1.4225266,-0.040707919
21067993798784,0.78776861,0,,-0.0012988042,0.0010999414,0.00098127649,9.7311134,-0.425598,1.352298,0.74856901,-0.11596,-0.64452302,-0.103858,-0.2722964,-1.4225266,-0.040707919
21067995836096,0.78980592,0,,-0.0012988042,0.0010999414,0.00098127649,9.7311134,-0.425598,1.352298,0.74856901,-0.11596,-0.64452302,-0.103858,-0.2722964,-1.4225266,-0.040707919
21067997985632,0.79195546,0,,-0.0022885105,0.0032558419,-0.00195428,9.7695198,-0.38298801,1.349841,0.74857002,-0.115966,-0.64451998,-0.103866,-0.272276,-1.4225206,-0.040746877
21067999780960,0.79375078,0,,-0.0022885105,0.0032558419,-0.00195428,9.7695198,-0.38298801,1.349841,0.74857002,-0.115966,-0.64451998,-0.103866,-0.272276,-1.4225206,-0.040746877
21068001860736,0.79583056,0,,-0.0031676678,-0.0020781984,0.00058271311,9.7386513,-0.30646101,1.366383,0.74856597,-0.115971,-0.64452201,-0.103875,-0.2722603,-1.4225294,-0.040784348
21068003831264,0.79780109,0,,-0.0031676678,-0.0020781984,0.00058271311,9.7386513,-0.30646101,1.366383,0.74856597,-0.115971,-0.64452201,-0.103875,-0.2722603,-1.4225294,-0.040784348
21068005776256,0.79974608,0,,-0.0031676678,-0.0020781984,0.00058271311,9.7386513,-0.30646101,1.366383,0.74856597,-0.115971,-0.64452201,-0.103875,-0.2722603,-1.4225294,-0.040784348
21068007768192,0.80173802,0,,0.0007776838,-0.0016885536,0.0024146455,9.634635,-0.39020199,1.342232,0.74856102,-0.115969,-0.64452797,-0.103877,-0.27223605,-1.422546,-0.040808187
21068009793376,0.8037632,0,,0.0007776838,-0.0016885536,0.0024146455,9.634635,-0.39020199,1.342232,0.74856102,-0.115969,-0.64452797,-0.103877,-0.27223605,-1.422546,-0.040808187
21068011834912,0.80580474,0,,0.001426859,-0.002008298,0.0019303516,9.6600637,-0.396878,1.336293,0.74855602,-0.115973,-0.64453399,-0.103873,-0.27232976,-1.42256,-0.040713608
21068013849824,0.80781965,0,,0.001426859,-0.002008298,0.0019303516,9.6600637,-0.396878,1.336293,0.74855602,-0.115973,-0.64453399,-0.103873,-0.27232976,-1.42256,-0.040713608
21068015828288,0.80979811,0,,0.001426859,-0.002008298,0.0019303516,9.6600637,-0.396878,1.336293,0.74855602,-0.115973,-0.64453399,-0.103873,-0.27232976,-1.42256,-0.040713608
21068017973728,0.81194355,0,,0.0035323545,0.00070155257,0.00069647365,9.7379713,-0.361597,1.373178,0.74855202,-0.115973,-0.64453799,-0.103869,-0.27236433,-1.4225705,-0.040672054
21068019806944,0.81377677,0,,0.0035323545,0.00070155257,0.00069647365,9.7379713,-0.361597,1.373178,0.74855202,-0.115973,-0.64453799,-0.103869,-0.27236433,-1.4225705,-0.040672054
21068021852896,0.81582272,0,,0.0047539106,0.0047475398,-0.00042474331,9.7072897,-0.36243701,1.3556761,0.74855602,-0.115962,-0.64453602,-0.103864,-0.27228791,-1.4225637,-0.040726578
21068023804608,0.81777443,0,,0.0047539106,0.0047475398,-0.00042474331,9.7072897,-0.36243701,1.3556761,0.74855602,-0.115962,-0.64453602,-0.103864,-0.27228791,-1.4225637,-0.040726578
21068025795872,0.8197657,0,,0.0047539106,0.0047475398,-0.00042474331,9.7072897,-0.36243701,1.3556761,0.74855602,-0.115962,-0.64453602,-0.103864,-0.27228791,-1.4225637,-0.040726578
21068027797024,0.82176685,0,,0.0033473321,0.003768096,-0.0024466898,9.6829967,-0.407179,1.353931,0.74856102,-0.11595,-0.64453298,-0.103865,-0.27214807,-1.4225544,-0.040851073
21068029812960,0.82378278,0,,0.0033473321,0.003768096,-0.0024466898,9.6829967,-0.407179,1.353931,0.74856102,-0.11595,-0.64453298,-0.103865,-0.27214807,-1.4225544,-0.040851073
21068031823936,0.82579376,0,,-0.00033616788,-0.00053784066,-0.003857457,9.7470865,-0.37720701,1.368349,0.74856001,-0.115944,-0.64453399,-0.103873,-0.27202405,-1.422558,-0.040978289
21068033794656,0.82776448,0,,-0.00033616788,-0.00053784066,-0.003857457,9.7470865,-0.37720701,1.368349,0.74856001,-0.115944,-0.64453399,-0.103873,-0.27202405,-1.422558,-0.040978289
21068035790080,0.8297599,0,,-0.00033616788,-0.00053784066,-0.003857457,9.7470865,-0.37720701,1.368349,0.74856001,-0.115944,-0.64453399,-0.103873,-0.27202405,-1.422558,-0.040978289
21068037849056,0.83181888,0,,-0.0026053229,0.00092036448,-0.00075865969,9.7496691,-0.37556601,1.387854,0.74855798,-0.115943,-0.64453602,-0.103881,-0.27194418,-1.4225658,-0.041066393
21068039786112,0.83375594,0,,-0.0026053229,0.00092036448,-0.00075865969,9.7496691,-0.37556601,1.387854,0.74855798,-0.115943,-0.64453602,-0.103881,-0.27194418,-1.4225658,-0.041066393
21068041842112,0.83581194,0,,0.0057930443,0.0035886761,-0.00099906135,9.7383823,-0.40031201,1.386884,0.74856001,-0.115937,-0.64453399,-0.103883,-0.27186793,-1.4225613,-0.041138265
21068043966944,0.83793677,0,,0.0057930443,0.0035886761,-0.00099906135,9.7383823,-0.40031201,1.386884,0.74856001,-0.115937,-0.64453399,-0.103883,-0.27186793,-1.4225613,-0.041138265
21068045885056,0.83985488,0,,0.0057930443,0.0035886761,-0.00099906135,9.7383823,-0.40031201,1.386884,0.74856001,-0.115937,-0.64453399,-0.103883,-0.27186793,-1.4225613,-0.041138265
21068047775584,0.84174541,0,,0.0031466889,-0.00078955204,0.00092500707,9.723444,-0.40078399,1.3816429,0.74856299,-0.115926,-0.64453202,-0.103877,-0.27179603,-1.4225548,-0.041186107
21068049776736,0.84374656,0,,0.0031466889,-0.00078955204,0.00092500707,9.723444,-0.40078399,1.3816429,0.74856299,-0.115926,-0.64453202,-0.103877,-0.27179603,-1.4225548,-0.041186107
21068051839264,0.84580909,0,,-0.00014667747,-0.0027773948,-0.0030276924,9.7053337,-0.35878599,1.3848079,0.74855798,-0.115924,-0.644539,-0.10388,-0.27176484,-1.422573,-0.041218672
21068053805728,0.84777555,0,,-0.00014667747,-0.0027773948,-0.0030276924,9.7053337,-0.35878599,1.3848079,0.74855798,-0.115924,-0.644539,-0.10388,-0.27176484,-1.422573,-0.041218672
21068055803104,0.84977293,0,,-0.00014667747,-0.0027773948,-0.0030276924,9.7053337,-0.35878599,1.3848079,0.74855798,-0.115924,-0.644539,-0.10388,-0.27176484,-1.422573,-0.041218672
21068057975552,0.85194538,0,,-0.00075382517,-0.0016260185,0.000353115,9.7251558,-0.41988799,1.371505,0.74855298,-0.115921,-0.64454502,-0.103884,-0.27170723,-1.4225913,-0.041276583
21068059807008,0.85377683,0,,-0.00075382517,-0.0016260185,0.000353115,9.7251558,-0.41988799,1.371505,0.74855298,-0.115921,-0.64454502,-0.103884,-0.27170723,-1.4225913,-0.041276583
21068061785632,0.85575546,0,,-0.003730903,0.0014787826,0.00076497781,9.6670828,-0.38141999,1.3913699,0.74855,-0.11593,-0.64454597,-0.103887,-0.27178045,-1.4225953,-0.041221743
21068063774528,0.85774435,0,,-0.003730903,0.0014787826,0.00076497781,9.6670828,-0.38141999,1.3913699,0.74855,-0.11593,-0.64454597,-0.103887,-0.27178045,-1.4225953,-0.041221743
21068065797600,0.85976742,0,,-0.003730903,0.0014787826,0.00076497781,9.6670828,-0.38141999,1.3913699,0.74855,-0.11593,-0.64454597,-0.103887,-0.27178045,-1.4225953,-0.041221743
21068067799744,0.86176957,0,,-0.0061234006,0.0024456427,0.00050638984,9.6965828,-0.42830801,1.384478,0.74855,-0.115939,-0.64454299,-0.103898,-0.27177437,-1.4225913,-0.041255465
21068069823424,0.86379325,0,,-0.0061234006,0.0024456427,0.00050638984,9.6965828,-0.42830801,1.384478,0.74855,-0.115939,-0.64454299,-0.103898,-0.27177437,-1.4225913,-0.041255465
21068071796928,0.86576675,0,,-0.0034582127,0.001119524,0.002971964,9.7166233,-0.39892501,1.404955,0.74854898,-0.115954,-0.644539,-0.103904,-0.27187765,-1.4225852,-0.041182283
21068073797664,0.86776749,0,,-0.0034582127,0.001119524,0.002971964,9.7166233,-0.39892501,1.404955,0.74854898,-0.115954,-0.644539,-0.103904,-0.27187765,-1.4225852,-0.041182283
21068075792672,0.8697625,0,,-0.0034582127,0.001119524,0.002971964,9.7166233,-0.39892501,1.404955,0.74854898,-0.115954,-0.644539,-0.103904,-0.27187765,-1.4225852,-0.041182283
21068078000256,0.87197008,0,,0.0017814052,0.0042077446,-0.00141342,9.7461386,-0.41806501,1.4143029,0.74855399,-0.115957,-0.64453399,-0.103907,-0.27186261,-1.422571,-0.041205756
21068079831968,0.87380179,0,,0.0017814052,0.0042077446,-0.00141342,9.7461386,-0.41806501,1.4143029,0.74855399,-0.115957,-0.64453399,-0.103907,-0.27186261,-1.422571,-0.041205756
21068081895392,0.87586522,0,,0.0049494219,0.001356243,7.9866265e-05,9.7092724,-0.39506099,1.4064389,0.748559,-0.11595,-0.64452899,-0.103905,-0.27179183,-1.4225568,-0.041264716
21068083842976,0.8778128,0,,0.0049494219,0.001356243,7.9866265e-05,9.7092724,-0.39506099,1.4064389,0.748559,-0.11595,-0.64452899,-0.103905,-0.27179183,-1.4225568,-0.041264716
21068085819744,0.87978957,0,,0.0049494219,0.001356243,7.9866265e-05,9.7092724,-0.39506099,1.4064389,0.748559,-0.11595,-0.64452899,-0.103905,-0.27179183,-1.4225568,-0.041264716
21068087873600,0.88184342,0,,-0.0010468659,-0.001782435,-0.0032771872,9.6593428,-0.32604501,1.427186,0.74855697,-0.115945,-0.64453202,-0.103907,-0.2717409,-1.4225653,-0.041310514
21068089811840,0.88378166,0,,-0.0010468659,-0.001782435,-0.0032771872,9.6593428,-0.32604501,1.427186,0.74855697,-0.115945,-0.64453202,-0.103907,-0.2717409,-1.4225653,-0.041310514
21068091786176,0.885756,0,,-0.0013241465,0.00050246285,0.00033051299,9.755312,-0.47934401,1.428314,0.74855697,-0.115939,-0.64453202,-0.103914,-0.27160962,-1.4225678,-0.04144403
21068093817472,0.8877873,0,,-0.0013241465,0.00050246285,0.00033051299,9.755312,-0.47934401,1.428314,0.74855697,-0.115939,-0.64453202,-0.103914,-0.27160962,-1.4225678,-0.04144403
21068095783744,0.88975357,0,,-0.0013241465,0.00050246285,0.00033051299,9.755312,-0.47934401,1.428314,0.74855697,-0.115939,-0.64453202,-0.103914,-0.27160962,-1.4225678,-0.04144403
21068097979936,0.89194976,0,,0.0035195263,0.0014656926,-0.00053871334,9.7600842,-0.41056401,1.428929,0.74856001,-0.115941,-0.64452797,-0.103913,-0.2716306,-1.4225597,-0.041424709
21068099814976,0.8937848,0,,0.0035195263,0.0014656926,-0.00053871334,9.7600842,-0.41056401,1.428929,0.74856001,-0.115941,-0.64452797,-0.103913,-0.2716306,-1.4225597,-0.041424709
21068101808096,0.89577792,0,,0.0016617628,0.00049117055,0.00051619858,9.7948074,-0.33000001,1.473796,0.74856102,-0.115935,-0.64452797,-0.103912,-0.27157607,-1.4225568,-0.041468481
21068103810912,0.89778074,0,,0.0016617628,0.00049117055,0.00051619858,9.7948074,-0.33000001,1.473796,0.74856102,-0.115935,-0.64452797,-0.103912,-0.27157607,-1.4225568,-0.041468481
21068105784064,0.89975389,0,,0.0016617628,0.00049117055,0.00051619858,9.7948074,-0.33000001,1.473796,0.74856102,-0.115935,-0.64452797,-0.103912,-0.27157607,-1.4225568,-0.041468481
21068107814208,0.90178403,0,,-0.0005133886,0.0013148089,0.0022011744,9.6006689,-0.42514601,1.42381,0.748564,-0.11593,-0.64452499,-0.10391,-0.2715417,-1.4225488,-0.041493232
21068109833472,0.9038033,0,,-0.0005133886,0.0013148089,0.0022011744,9.6006689,-0.42514601,1.42381,0.748564,-0.11593,-0.64452499,-0.10391,-0.2715417,-1.4225488,-0.041493232
21068111883520,0.90585334,0,,0.0036168981,0.0017692403,-9.6097829e-05,9.6340799,-0.40461999,1.4358031,0.74856699,-0.11593,-0.64452201,-0.103909,-0.27154479,-1.4225399,-0.041489549
21068113845760,0.90781558,0,,0.0036168981,0.0017692403,-9.6097829e-05,9.6340799,-0.40461999,1.4358031,0.74856699,-0.11593,-0.64452201,-0.103909,-0.27154479,-1.4225399,-0.041489549
21068115817216,0.90978704,0,,0.0036168981,0.0017692403,-9.6097829e-05,9.6340799,-0.40461999,1.4358031,0.74856699,-0.11593,-0.64452201,-0.103909,-0.27154479,-1.4225399,-0.041489549
21068117963936,0.91193376,0,,0.0068572414,9.3532196e-05,0.0002804046,9.7565155,-0.32101199,1.447525,0.74857199,-0.11592,-0.64451998,-0.103903,-0.27148371,-1.4225314,-0.041526217
21068119815552,0.91378538,0,,0.0068572414,9.3532196e-05,0.0002804046,9.7565155,-0.32101199,1.447525,0.74857199,-0.11592,-0.64451998,-0.103903,-0.27148371,-1.4225314,-0.041526217
21068121861280,0.9158311,0,,0.0056381118,0.003696136,0.0025215818,9.672533,-0.40577501,1.436448,0.74857903,-0.115905,-0.64451599,-0.103892,-0.27141829,-1.4225172,-0.04155381
21068123844704,0.91781453,0,,0.0056381118,0.003696136,0.0025215818,9.672533,-0.40577501,1.436448,0.74857903,-0.115905,-0.64451599,-0.103892,-0.27141829,-1.4225172,-0.04155381
21068125840416,0.91981024,0,,0.0056381118,0.003696136,0.0025215818,9.672533,-0.40577501,1.436448,0.74857903,-0.115905,-0.64451599,-0.103892,-0.27141829,-1.4225172,-0.04155381
21068127788800,0.92175862,0,,0.0018785503,0.0012591852,-0.0032994576,9.6311846,-0.445447,1.4026181,0.74858397,-0.115897,-0.64451301,-0.103887,-0.27137289,-1.4225065,-0.041582381
21068129796512,0.92376634,0,,0.0018785503,0.0012591852,-0.0032994576,9.6311846,-0.445447,1.4026181,0.74858397,-0.115897,-0.64451301,-0.103887,-0.27137289,-1.4225065,-0.041582381
21068131790240,0.92576006,0,,0.0053592252,0.0021887301,-0.0026658159,9.8034801,-0.33499199,1.4538569,0.748586,-0.115888,-0.64451098,-0.103891,-0.27124061,-1.4225022,-0.041707766
21068133782848,0.92775267,0,,0.0053592252,0.0021887301,-0.0026658159,9.8034801,-0.33499199,1.4538569,0.748586,-0.115888,-0.64451098,-0.103891,-0.27124061,-1.4225022,-0.041707766
21068135790272,0.9297601,0,,0.0053592252,0.0021887301,-0.0026658159,9.8034801,-0.33499199,1.4538569,0.748586,-0.115888,-0.64451098,-0.103891,-0.27124061,-1.4225022,-0.041707766
21068137937920,0.93190774,0,,0.001776815,0.0023595631,0.0018242007,9.7038641,-0.37375301,1.436165,0.74859297,-0.115874,-0.64450598,-0.103888,-0.27110724,-1.4224871,-0.041815174
21068139777440,0.93374726,0,,0.001776815,0.0023595631,0.0018242007,9.7038641,-0.37375301,1.436165,0.74859297,-0.115874,-0.64450598,-0.103888,-0.27110724,-1.4224871,-0.041815174
21068141778688,0.93574851,0,,0.0014114827,-0.0029340381,0.00095989617,9.7204752,-0.41698399,1.431028,0.74859399,-0.115873,-0.64450598,-0.103886,-0.27111481,-1.4224854,-0.041804264
21068143861760,0.93783158,0,,0.0014114827,-0.0029340381,0.00095989617,9.7204752,-0.41698399,1.431028,0.74859399,-0.115873,-0.64450598,-0.103886,-0.27111481,-1.4224854,-0.041804264
21068145811872,0.9397817,0,,0.0014114827,-0.0029340381,0.00095989617,9.7204752,-0.41698399,1.431028,0.74859399,-0.115873,-0.64450598,-0.103886,-0.27111481,-1.4224854,-0.041804264
21068147786752,0.94175658,0,,0.0049993562,0.00081918777,0.0017166186,9.719882,-0.32545599,1.438834,0.74859297,-0.115872,-0.64450699,-0.103878,-0.27118125,-1.422486,-0.041724872
21068149776384,0.94374621,0,,0.0049993562,0.00081918777,0.0017166186,9.719882,-0.32545599,1.438834,0.74859297,-0.115872,-0.64450699,-0.103878,-0.27118125,-1.422486,-0.041724872
21068151776128,0.94574595,0,,0.0038751371,-0.0034264826,0.0014905286,9.7197475,-0.394288,1.423558,0.74859297,-0.115862,-0.64451098,-0.103869,-0.27115862,-1.4224918,-0.041720541
21068153773024,0.94774285,0,,0.0038751371,-0.0034264826,0.0014905286,9.7197475,-0.394288,1.423558,0.74859297,-0.115862,-0.64451098,-0.103869,-0.27115862,-1.4224918,-0.041720541
21068155854496,0.94982432,0,,0.0038751371,-0.0034264826,0.0014905286,9.7197475,-0.394288,1.423558,0.74859297,-0.115862,-0.64451098,-0.103869,-0.27115862,-1.4224918,-0.041720541
21068157959936,0.95192976,0,,0.0014777528,-0.00086638144,0.0033002082,9.7134848,-0.406766,1.418368,0.74859202,-0.11586,-0.64451301,-0.103859,-0.27123547,-1.4224959,-0.041626523
21068159766048,0.95373587,0,,0.0014777528,-0.00086638144,0.0033002082,9.7134848,-0.406766,1.418368,0.74859202,-0.11586,-0.64451301,-0.103859,-0.27123547,-1.4224959,-0.041626523
21068161768896,0.95573872,0,,-0.0061931088,-0.0031484169,0.00043563418,9.7307224,-0.42798299,1.389708,0.74858803,-0.11587,-0.64451599,-0.103862,-0.27132102,-1.4225049,-0.041559449
21068163808928,0.95777875,0,,-0.0061931088,-0.0031484169,0.00043563418,9.7307224,-0.42798299,1.389708,0.74858803,-0.11587,-0.64451599,-0.103862,-0.27132102,-1.4225049,-0.041559449
21068165793792,0.95976362,0,,-0.0061931088,-0.0031484169,0.00043563418,9.7307224,-0.42798299,1.389708,0.74858803,-0.11587,-0.64451599,-0.103862,-0.27132102,-1.4225049,-0.041559449
21068167764480,0.9617343,0,,-0.0061931088,-0.0031484169,0.00043563418,9.7307224,-0.42798299,1.389708,0.74858803,-0.11587,-0.64451599,-0.103862,-0.27132102,-1.4225049,-0.041559449
21068169789376,0.9637592,0,,-0.0061931088,-0.0031484169,0.00043563418,9.7307224,-0.42798299,1.389708,0.74858803,-0.11587,-0.64451599,-0.103862,-0.27132102,-1.4225049,-0.041559449
21068171791392,0.96576122,0,,-0.0011844677,0.0048883882,-0.0010353293,9.6174517,-0.33347601,1.3770469,0.74857998,-0.115888,-0.644517,-0.103898,-0.271196,-1.4225206,-0.041761366
21068173796384,0.96776621,0,,-0.0011844677,0.0048883882,-0.0010353293,9.6174517,-0.33347601,1.3770469,0.74857998,-0.115888,-0.644517,-0.103898,-0.271196,-1.4225206,-0.041761366
21068175763360,0.96973318,0,,-0.0011844677,0.0048883882,-0.0010353293,9.6174517,-0.33347601,1.3770469,0.74857998,-0.115888,-0.644517,-0.103898,-0.271196,-1.4225206,-0.041761366
21068177969536,0.97193936,0,,0.00067015406,0.00015769049,0.0036670938,9.6395082,-0.42398101,1.354273,0.74858397,-0.115885,-0.644512,-0.103897,-0.27116336,-1.4225077,-0.041787648
21068179787040,0.97375686,0,,0.00067015406,0.00015769049,0.0036670938,9.6395082,-0.42398101,1.354273,0.74858397,-0.115885,-0.644512,-0.103897,-0.27116336,-1.4225077,-0.041787648
21068181782112,0.97575194,0,,-0.002112913,0.0051160661,0.00085245374,9.7126341,-0.362786,1.3876179,0.748586,-0.115895,-0.64450902,-0.103895,-0.27127283,-1.4224979,-0.041689719
21068183802528,0.97777235,0,,-0.002112913,0.0051160661,0.00085245374,9.7126341,-0.362786,1.3876179,0.748586,-0.115895,-0.64450902,-0.103895,-0.27127283,-1.4224979,-0.041689719
21068185779968,0.97974979,0,,-0.002112913,0.0051160661,0.00085245374,9.7126341,-0.362786,1.3876179,0.748586,-0.115895,-0.64450902,-0.103895,-0.27127283,-1.4224979,-0.041689719
21068187783552,0.98175338,0,,0.00029569368,0.0026353425,0.0013084035,9.76826,-0.368202,1.374957,0.74858999,-0.115896,-0.644503,-0.1039,-0.27122967,-1.422486,-0.041742412
21068189780288,0.98375011,0,,0.00029569368,0.0026353425,0.0013084035,9.76826,-0.368202,1.374957,0.74858999,-0.115896,-0.644503,-0.1039,-0.27122967,-1.422486,-0.041742412
21068191788384,0.98575821,0,,0.0013787228,0.0019236321,0.0061681157,9.6896582,-0.46250501,1.359076,0.74859297,-0.1159,-0.64450002,-0.103894,-0.27131521,-1.4224761,-0.041654727
21068193781664,0.98775149,0,,0.0013787228,0.0019236321,0.0061681157,9.6896582,-0.46250501,1.359076,0.74859297,-0.1159,-0.64450002,-0.103894,-0.27131521,-1.4224761,-0.041654727
21068195775968,0.98974579,0,,0.0013787228,0.0019236321,0.0061681157,9.6896582,-0.46250501,1.359076,0.74859297,-0.1159,-0.64450002,-0.103894,-0.27131521,-1.4224761,-0.041654727
21068197967008,0.99193683,0,,0.00093612479,-0.0014421306,0.0013047558,9.7775259,-0.39792901,1.355268,0.74859101,-0.115911,-0.64450097,-0.103887,-0.27149273,-1.4224754,-0.041482234
21068199805504,0.99377533,0,,0.00093612479,-0.0014421306,0.0013047558,9.7775259,-0.39792901,1.355268,0.74859101,-0.115911,-0.64450097,-0.103887,-0.27149273,-1.4224754,-0.041482234
21068201767584,0.99573741,0,,0.0053467989,0.0037850955,-0.0028086885,9.8329201,-0.38843399,1.361668,0.74858999,-0.115904,-0.64450401,-0.103885,-0.27144156,-1.4224813,-0.041520895
21068203780480,0.9977503,0,,0.0053467989,0.0037850955,-0.0028086885,9.8329201,-0.38843399,1.361668,0.74858999,-0.115904,-0.64450401,-0.103885,-0.27144156,-1.4224813,-0.041520895
21068205783104,0.99975293,0,,0.0053467989,0.0037850955,-0.0028086885,9.8329201,-0.38843399,1.361668,0.74858999,-0.115904,-0.64450401,-0.103885,-0.27144156,-1.4224813,-0.041520895
21068207775776,1.0017456,0,,0.0044813599,0.0043433564,-0.0035777853,9.7057209,-0.417243,1.349221,0.74859399,-0.115888,-0.64450198,-0.103888,-0.27125015,-1.4224769,-0.041694205
21068209785728,1.0037556,0,,0.0044813599,0.0043433564,-0.0035777853,9.7057209,-0.417243,1.349221,0.74859399,-0.115888,-0.64450198,-0.103888,-0.27125015,-1.4224769,-0.041694205
21068211844192,1.005814,0,,0.0054362296,0.0040590598,0.00075654789,9.680685,-0.37237799,1.328629,0.74860001,-0.115879,-0.64449698,-0.103886,-0.27116037,-1.4224644,-0.041767666
21068213797504,1.0077673,0,,0.0054362296,0.0040590598,0.00075654789,9.680685,-0.37237799,1.328629,0.74860001,-0.115879,-0.64449698,-0.103886,-0.27116037,-1.4224644,-0.041767666
21068215775168,1.009745,0,,0.0054362296,0.0040590598,0.00075654789,9.680685,-0.37237799,1.328629,0.74860001,-0.115879,-0.64449698,-0.103886,-0.27116037,-1.4224644,-0.041767666
21068217923520,1.0118933,0,,0.0024678955,0.0011823385,0.0011821814,9.6723614,-0.35223001,1.335874,0.74860102,-0.115873,-0.64449698,-0.103882,-0.27113307,-1.4224629,-0.041780233
21068219812064,1.0137819,0,,0.0024678955,0.0011823385,0.0011821814,9.6723614,-0.35223001,1.335874,0.74860102,-0.115873,-0.64449698,-0.103882,-0.27113307,-1.4224629,-0.041780233
21068221933664,1.0159035,0,,0.0050469337,-0.0013871179,0.0032612002,9.668726,-0.38918,1.325348,0.74860001,-0.115868,-0.64450097,-0.103874,-0.27115649,-1.422469,-0.041737418
21068223782720,1.0177525,0,,0.0050469337,-0.0013871179,0.0032612002,9.668726,-0.38918,1.325348,0.74860001,-0.115868,-0.64450097,-0.103874,-0.27115649,-1.422469,-0.041737418
21068225789312,1.0197591,0,,0.0050469337,-0.0013871179,0.0032612002,9.668726,-0.38918,1.325348,0.74860001,-0.115868,-0.64450097,-0.103874,-0.27115649,-1.422469,-0.041737418
21068227788896,1.0217587,0,,0.00037454766,4.7996554e-06,0.00405625,9.6689348,-0.420748,1.31986,0.74859601,-0.11587,-0.64450699,-0.103865,-0.27126283,-1.4224818,-0.041621617
21068229761120,1.0237309,0,,0.00037454766,4.7996554e-06,0.00405625,9.6689348,-0.420748,1.31986,0.74859601,-0.11587,-0.64450699,-0.103865,-0.27126283,-1.4224818,-0.041621617
21068231757568,1.0257274,0,,0.00089842565,0.0029864852,0.0017628699,9.7095757,-0.364995,1.347937,0.74859601,-0.115874,-0.64450699,-0.103861,-0.27134347,-1.4224798,-0.041540669
21068233783520,1.0277533,0,,0.00089842565,0.0029864852,0.0017628699,9.7095757,-0.364995,1.347937,0.74859601,-0.115874,-0.64450699,-0.103861,-0.27134347,-1.4224798,-0.041540669
21068235802400,1.0297722,0,,0.00089842565,0.0029864852,0.0017628699,9.7095757,-0.364995,1.347937,0.74859601,-0.115874,-0.64450699,-0.103861,-0.27134347,-1.4224798,-0.041540669
21068237803648,1.0317735,0,,0.0036453994,0.0031947902,0.0013721255,9.7063875,-0.36708099,1.3473901,0.74860001,-0.11587,-0.644503,-0.103856,-0.27134589,-1.422469,-0.04152573
21068239783168,1.033753,0,,0.0036453994,0.0031947902,0.0013721255,9.7063875,-0.36708099,1.3473901,0.74860001,-0.11587,-0.644503,-0.103856,-0.27134589,-1.422469,-0.04152573
21068241779648,1.0357495,0,,-0.0020631886,-0.0026893079,0.0025848501,9.7048836,-0.38249999,1.3474259,0.74859703,-0.115871,-0.64450699,-0.103852,-0.27139138,-1.4224761,-0.041476666
21068243884896,1.0378547,0,,-0.0020631886,-0.0026893079,0.0025848501,9.7048836,-0.38249999,1.3474259,0.74859703,-0.115871,-0.64450699,-0.103852,-0.27139138,-1.4224761,-0.041476666
21068245783872,1.0397537,0,,-0.0020631886,-0.0026893079,0.0025848501,9.7048836,-0.38249999,1.3474259,0.74859703,-0.115871,-0.64450699,-0.103852,-0.27139138,-1.4224761,-0.041476666
21068247788224,1.041758,0,,-0.0063989878,-0.0042322314,0.00011592477,9.7743187,-0.37722099,1.36191,0.74858701,-0.115883,-0.64451599,-0.10386,-0.27147324,-1.4225041,-0.041422945
21068249777472,1.0437473,0,,-0.0063989878,-0.0042322314,0.00011592477,9.7743187,-0.37722099,1.36191,0.74858701,-0.115883,-0.64451599,-0.10386,-0.27147324,-1.4225041,-0.041422945
21068251777792,1.0457476,0,,-0.0014628652,-0.0026478739,0.00094879587,9.7645121,-0.35479999,1.3637429,0.748577,-0.115893,-0.64452398,-0.103865,-0.2715417,-1.422528,-0.041376452
21068253788192,1.047758,0,,-0.0014628652,-0.0026478739,0.00094879587,9.7645121,-0.35479999,1.3637429,0.748577,-0.115893,-0.64452398,-0.103865,-0.2715417,-1.422528,-0.041376452
21068255799648,1.0497695,0,,-0.0014628652,-0.0026478739,0.00094879587,9.7645121,-0.35479999,1.3637429,0.748577,-0.115893,-0.64452398,-0.103865,-0.2715417,-1.422528,-0.041376452
21068257932448,1.0519023,0,,-0.00038465311,-0.00084137087,-0.00072127479,9.7303791,-0.40254399,1.369752,0.74857301,-0.115892,-0.64452899,-0.103868,-0.27151741,-1.4225407,-0.041403799
21068259770272,1.0537401,0,,-0.00038465311,-0.00084137087,-0.00072127479,9.7303791,-0.40254399,1.369752,0.74857301,-0.115892,-0.64452899,-0.103868,-0.27151741,-1.4225407,-0.041403799
21068261796832,1.0557667,0,,0.0014116746,0.00072356117,-0.0021068568,9.7341099,-0.343209,1.3743039,0.74856901,-0.115893,-0.64453298,-0.103871,-0.27150822,-1.4225524,-0.041417361
21068263767296,1.0577371,0,,0.0014116746,0.00072356117,-0.0021068568,9.7341099,-0.343209,1.3743039,0.74856901,-0.115893,-0.64453298,-0.103871,-0.27150822,-1.4225524,-0.041417361
21068265767552,1.0597374,0,,0.0014116746,0.00072356117,-0.0021068568,9.7341099,-0.343209,1.3743039,0.74856901,-0.115893,-0.64453298,-0.103871,-0.27150822,-1.4225524,-0.041417361
21068267766496,1.0617363,0,,0.00095148367,-0.00014254103,-0.0002477844,9.7252808,-0.35310999,1.4042439,0.748568,-0.115885,-0.64453501,-0.103875,-0.2713999,-1.4225593,-0.041519813
21068269810720,1.0637805,0,,0.00095148367,-0.00014254103,-0.0002477844,9.7252808,-0.35310999,1.4042439,0.748568,-0.115885,-0.64453501,-0.103875,-0.2713999,-1.4225593,-0.041519813
21068271779520,1.0657493,0,,0.0052243465,0.0033053743,0.0036519444,9.6408978,-0.43325701,1.36906,0.74857002,-0.115883,-0.64453399,-0.10387,-0.27141541,-1.4225553,-0.041494576
21068273759520,1.0677293,0,,0.0052243465,0.0033053743,0.0036519444,9.6408978,-0.43325701,1.36906,0.74857002,-0.115883,-0.64453399,-0.10387,-0.27141541,-1.4225553,-0.041494576
21068275794208,1.069764,0,,0.0052243465,0.0033053743,0.0036519444,9.6408978,-0.43325701,1.36906,0.74857002,-0.115883,-0.64453399,-0.10387,-0.27141541,-1.4225553,-0.041494576
21068277989888,1.0719597,0,,0.0052061424,0.0032295049,0.0017779145,9.7145824,-0.377765,1.395507,0.74857599,-0.11588,-0.64452899,-0.103856,-0.27148922,-1.4225367,-0.041396259
21068279767488,1.0737373,0,,0.0052061424,0.0032295049,0.0017779145,9.7145824,-0.377765,1.395507,0.74857599,-0.11588,-0.64452899,-0.103856,-0.27148922,-1.4225367,-0.041396259
21068281791296,1.0757611,0,,-0.0015392582,0.00079286818,-0.00021989403,9.6626863,-0.37053499,1.3946019,0.74858099,-0.115876,-0.644526,-0.103852,-0.27147673,-1.4225258,-0.041397062
21068283803520,1.0777733,0,,-0.0015392582,0.00079286818,-0.00021989403,9.6626863,-0.37053499,1.3946019,0.74858099,-0.115876,-0.644526,-0.103852,-0.27147673,-1.4225258,-0.041397062
21068285779328,1.0797492,0,,-0.0015392582,0.00079286818,-0.00021989403,9.6626863,-0.37053499,1.3946019,0.74858099,-0.115876,-0.644526,-0.103852,-0.27147673,-1.4225258,-0.041397062
21068287778912,1.0817487,0,,-0.0077847268,-0.00033625513,0.00073534214,9.6870899,-0.372374,1.399754,0.74857801,-0.115883,-0.644526,-0.103862,-0.27147548,-1.422531,-0.041423086
21068289784928,1.0837548,0,,-0.0077847268,-0.00033625513,0.00073534214,9.6870899,-0.372374,1.399754,0.74857801,-0.115883,-0.644526,-0.103862,-0.27147548,-1.422531,-0.041423086
21068291783264,1.0857531,0,,-0.003598677,0.0016566666,-0.0012864124,9.6779213,-0.39653799,1.41057,0.74857801,-0.115893,-0.64452302,-0.103872,-0.27148387,-1.4225266,-0.041443926
21068293748000,1.0877178,0,,-0.003598677,0.0016566666,-0.0012864124,9.6779213,-0.39653799,1.41057,0.74857801,-0.115893,-0.64452302,-0.103872,-0.27148387,-1.4225266,-0.041443926
21068295780704,1.0897505,0,,-0.003598677,0.0016566666,-0.0012864124,9.6779213,-0.39653799,1.41057,0.74857801,-0.115893,-0.64452302,-0.103872,-0.27148387,-1.4225266,-0.041443926
21068297936224,1.091906,0,,-0.0021843669,9.484119e-05,-0.0015068475,9.7466955,-0.392241,1.437609,0.74857801,-0.115896,-0.64451998,-0.10388,-0.27143459,-1.4225216,-0.041509531
21068299745184,1.093715,0,,-0.0021843669,9.484119e-05,-0.0015068475,9.7466955,-0.392241,1.437609,0.74857801,-0.115896,-0.64451998,-0.10388,-0.27143459,-1.4225216,-0.041509531
21068301774976,1.0957448,0,,-0.0032829817,0.0020947791,0.0001847431,9.778903,-0.39704901,1.450753,0.74857801,-0.115901,-0.64451897,-0.103887,-0.27142685,-1.4225226,-0.041534698
21068303788640,1.0977585,0,,-0.0032829817,0.0020947791,0.0001847431,9.778903,-0.39704901,1.450753,0.74857801,-0.115901,-0.64451897,-0.103887,-0.27142685,-1.4225226,-0.041534698
21068305770784,1.0997406,0,,-0.0032829817,0.0020947791,0.0001847431,9.778903,-0.39704901,1.450753,0.74857801,-0.115901,-0.64451897,-0.103887,-0.27142685,-1.4225226,-0.041534698
21068307770880,1.1017407,0,,0.0024461663,0.0022942875,0.0019424816,9.7133322,-0.43373799,1.444878,0.74858302,-0.115904,-0.644512,-0.103888,-0.27143649,-1.4225049,-0.041530004
21068309785664,1.1037555,0,,0.0024461663,0.0022942875,0.0019424816,9.7133322,-0.43373799,1.444878,0.74858302,-0.115904,-0.644512,-0.103888,-0.27143649,-1.4225049,-0.041530004
21068311888928,1.1058588,0,,0.0069569695,0.0026184476,-0.00079588758,9.7583036,-0.40068799,1.453143,0.74858999,-0.115897,-0.64450598,-0.103878,-0.27144036,-1.422485,-0.04150227
21068313792192,1.107762,0,,0.0069569695,0.0026184476,-0.00079588758,9.7583036,-0.40068799,1.453143,0.74858999,-0.115897,-0.64450598,-0.103878,-0.27144036,-1.422485,-0.04150227
21068315779008,1.1097488,0,,0.0069569695,0.0026184476,-0.00079588758,9.7583036,-0.40068799,1.453143,0.74858999,-0.115897,-0.64450598,-0.103878,-0.27144036,-1.422485,-0.04150227
21068317962016,1.1119318,0,,0.004924848,-0.00077483892,-0.0013354562,9.7663832,-0.41304201,1.454129,0.74859399,-0.115885,-0.64450502,-0.103871,-0.27136461,-1.4224802,-0.04155034
21068319771808,1.1137416,0,,0.004924848,-0.00077483892,-0.0013354562,9.7663832,-0.41304201,1.454129,0.74859399,-0.115885,-0.64450502,-0.103871,-0.27136461,-1.4224802,-0.04155034
21068321812928,1.1157828,0,,-0.0011856371,-0.0032830865,0.0024017302,9.6607256,-0.43962198,1.448602,0.74859202,-0.11588,-0.64450902,-0.103868,-0.27135373,-1.4224895,-0.041548592
21068323782144,1.117752,0,,-0.0011856371,-0.0032830865,0.0024017302,9.6607256,-0.43962198,1.448602,0.74859202,-0.11588,-0.64450902,-0.103868,-0.27135373,-1.4224895,-0.041548592
21068325795648,1.1197655,0,,-0.0011856371,-0.0032830865,0.0024017302,9.6607256,-0.43962198,1.448602,0.74859202,-0.11588,-0.64450902,-0.103868,-0.27135373,-1.4224895,-0.041548592
21068327767424,1.1217372,0,,-0.0013261012,0.0024660804,0.00085238391,9.6264925,-0.40993398,1.435041,0.74859297,-0.115887,-0.64450699,-0.103867,-0.27143016,-1.422483,-0.041482725
21068329769696,1.1237395,0,,-0.0013261012,0.0024660804,0.00085238391,9.6264925,-0.40993398,1.435041,0.74859297,-0.115887,-0.64450699,-0.103867,-0.27143016,-1.422483,-0.041482725
21068331795776,1.1257656,0,,0.0037059099,0.0024936218,0.0011636459,9.6344614,-0.36608499,1.4578511,0.74859899,-0.115889,-0.64450002,-0.103866,-0.27143748,-1.4224644,-0.041475988
21068333759744,1.1277296,0,,0.0037059099,0.0024936218,0.0011636459,9.6344614,-0.36608499,1.4578511,0.74859899,-0.115889,-0.64450002,-0.103866,-0.27143748,-1.4224644,-0.041475988
21068335813696,1.1297835,0,,0.0037059099,0.0024936218,0.0011636459,9.6344614,-0.36608499,1.4578511,0.74859899,-0.115889,-0.64450002,-0.103866,-0.27143748,-1.4224644,-0.041475988
21068337979616,1.1319494,0,,0.0002735978,-0.00064273494,-0.00010431833,9.647233,-0.422802,1.430446,0.74860197,-0.115882,-0.64449799,-0.103865,-0.27137224,-1.422458,-0.041529725
21068339786080,1.1337559,0,,0.0002735978,-0.00064273494,-0.00010431833,9.647233,-0.422802,1.430446,0.74860197,-0.115882,-0.64449799,-0.103865,-0.27137224,-1.422458,-0.041529725
21068341754112,1.1357239,0,,0.0043960831,0.00053435001,-0.00060084705,9.6996479,-0.39281699,1.439119,0.748604,-0.115877,-0.64449698,-0.103862,-0.27134396,-1.4224527,-0.04154662
21068343820864,1.1377907,0,,0.0043960831,0.00053435001,-0.00060084705,9.6996479,-0.39281699,1.439119,0.748604,-0.115877,-0.64449698,-0.103862,-0.27134396,-1.4224527,-0.04154662
21068345878336,1.1398482,0,,0.0043960831,0.00053435001,-0.00060084705,9.6996479,-0.39281699,1.439119,0.748604,-0.115877,-0.64449698,-0.103862,-0.27134396,-1.4224527,-0.04154662
21068347847008,1.1418168,0,,0.00045891688,-0.0011247949,0.0052227928,9.7070742,-0.39526901,1.448872,0.74860603,-0.115875,-0.64449602,-0.103855,-0.2713847,-1.4224483,-0.041492969
21068349823904,1.1437937,0,,0.00045891688,-0.0011247949,0.0052227928,9.7070742,-0.39526901,1.448872,0.74860603,-0.115875,-0.64449602,-0.103855,-0.2713847,-1.4224483,-0.041492969
21068351801280,1.1457711,0,,-0.00092563534,0.0042951506,-0.00073923422,9.7801743,-0.428525,1.455929,0.74860901,-0.115879,-0.64449102,-0.103855,-0.27142257,-1.4224375,-0.041460891
21068353786880,1.1477567,0,,-0.00092563534,0.0042951506,-0.00073923422,9.7801743,-0.428525,1.455929,0.74860901,-0.115879,-0.64449102,-0.103855,-0.27142257,-1.4224375,-0.041460891
21068355745120,1.1497149,0,,-0.00092563534,0.0042951506,-0.00073923422,9.7801743,-0.428525,1.455929,0.74860901,-0.115879,-0.64449102,-0.103855,-0.27142257,-1.4224375,-0.041460891
21068357933216,1.151903,0,,0.003595675,0.0036159907,-0.0018216351,9.768117,-0.39820701,1.446007,0.74861801,-0.115874,-0.644481,-0.103857,-0.27133092,-1.4224114,-0.041548455
21068359771808,1.1537416,0,,0.003595675,0.0036159907,-0.0018216351,9.768117,-0.39820701,1.446007,0.74861801,-0.115874,-0.644481,-0.103857,-0.27133092,-1.4224114,-0.041548455
21068361772256,1.1557421,0,,0.003595675,0.0036159907,-0.0018216351,9.768117,-0.39820701,1.446007,0.74861801,-0.115874,-0.644481,-0.103857,-0.27133092,-1.4224114,-0.041548455
21068363768608,1.1577384,0,,-0.0044801381,-0.004492966,-0.00141808,9.7434702,-0.37781301,1.421916,0.74861598,-0.115873,-0.64448297,-0.103864,-0.2712632,-1.4224174,-0.041624496
21068365792480,1.1597623,0,,-0.0044801381,-0.004492966,-0.00141808,9.7434702,-0.37781301,1.421916,0.74861598,-0.115873,-0.64448297,-0.103864,-0.2712632,-1.4224174,-0.041624496
21068367797312,1.1617671,0,,0.00023352506,0.0023417082,0.00010723303,9.6922522,-0.38527799,1.415131,0.748613,-0.115877,-0.64448398,-0.103872,-0.2712369,-1.4224251,-0.041668043
21068369790976,1.1637608,0,,0.00023352506,0.0023417082,0.00010723303,9.6922522,-0.38527799,1.415131,0.748613,-0.115877,-0.64448398,-0.103872,-0.2712369,-1.4224251,-0.041668043
21068371797696,1.1657675,0,,-0.0020115618,0.0023619716,0.0027133586,9.7148895,-0.38955,1.399966,0.74861801,-0.115881,-0.64447802,-0.10387,-0.27127958,-1.4224081,-0.041627759
21068373771936,1.1677418,0,,-0.0020115618,0.0023619716,0.0027133586,9.7148895,-0.38955,1.399966,0.74861801,-0.115881,-0.64447802,-0.10387,-0.27127958,-1.4224081,-0.041627759
21068375785024,1.1697548,0,,-0.0020115618,0.0023619716,0.0027133586,9.7148895,-0.38955,1.399966,0.74861801,-0.115881,-0.64447802,-0.10387,-0.27127958,-1.4224081,-0.041627759
21068377970368,1.1719402,0,,-0.00028445376,0.0018371684,-0.00041036182,9.6812506,-0.342888,1.399642,0.74862099,-0.115884,-0.64447397,-0.103874,-0.27126789,-1.4223991,-0.041649909
21068379763360,1.1737332,0,,-0.00028445376,0.0018371684,-0.00041036182,9.6812506,-0.342888,1.399642,0.74862099,-0.115884,-0.64447397,-0.103874,-0.27126789,-1.4223991,-0.041649909
21068381804544,1.1757744,0,,0.0038529541,0.0030193846,-0.00081264274,9.6752768,-0.40213701,1.379199,0.74862403,-0.115874,-0.644472,-0.103874,-0.27116637,-1.422393,-0.041738954
21068383763712,1.1777335,0,,0.0038529541,0.0030193846,-0.00081264274,9.6752768,-0.40213701,1.379199,0.74862403,-0.115874,-0.644472,-0.103874,-0.27116637,-1.422393,-0.041738954
21068385762112,1.1797319,0,,0.0038529541,0.0030193846,-0.00081264274,9.6752768,-0.40213701,1.379199,0.74862403,-0.115874,-0.644472,-0.103874,-0.27116637,-1.422393,-0.041738954
21068387787840,1.1817577,0,,0.0053315445,0.0048548953,-0.00076969023,9.6683378,-0.36930999,1.3754801,0.748631,-0.115866,-0.64446598,-0.103869,-0.27110452,-1.4223749,-0.041781419
21068389754912,1.1837247,0,,0.0053315445,0.0048548953,-0.00076969023,9.6683378,-0.36930999,1.3754801,0.748631,-0.115866,-0.64446598,-0.103869,-0.27110452,-1.4223749,-0.041781419
21068391759744,1.1857296,0,,0.0048819129,2.9059732e-05,0.00085453063,9.687623,-0.39037099,1.365509,0.74863398,-0.115857,-0.64446497,-0.103865,-0.27104688,-1.422371,-0.041820305
21068393780320,1.1877501,0,,0.0048819129,2.9059732e-05,0.00085453063,9.687623,-0.39037099,1.365509,0.74863398,-0.115857,-0.64446497,-0.103865,-0.27104688,-1.422371,-0.041820305
21068395781312,1.1897511,0,,0.0048819129,2.9059732e-05,0.00085453063,9.687623,-0.39037099,1.365509,0.74863398,-0.115857,-0.64446497,-0.103865,-0.27104688,-1.422371,-0.041820305
21068397938816,1.1919086,0,,0.00083480842,0.0015458731,0.0010801668,9.7267466,-0.32436401,1.372648,0.74863303,-0.115852,-0.644467,-0.103861,-0.27103052,-1.4223745,-0.041823813
21068399746240,1.1937161,0,,0.00083480842,0.0015458731,0.0010801668,9.7267466,-0.32436401,1.372648,0.74863303,-0.115852,-0.644467,-0.103861,-0.27103052,-1.4223745,-0.041823813
21068401783744,1.1957536,0,,0.0017222386,0.00028440138,0.0029985802,9.7034454,-0.38508499,1.3762079,0.74863398,-0.115849,-0.644467,-0.103859,-0.27101482,-1.4223733,-0.041832244
21068403802720,1.1977725,0,,0.0017222386,0.00028440138,0.0029985802,9.7034454,-0.38508499,1.3762079,0.74863398,-0.115849,-0.644467,-0.103859,-0.27101482,-1.4223733,-0.041832244
21068406083616,1.2000534,0,,0.0017222386,0.00028440138,0.0029985802,9.7034454,-0.38508499,1.3762079,0.74863398,-0.115849,-0.644467,-0.103859,-0.27101482,-1.4223733,-0.041832244
21068407837600,1.2018074,0,,0.00047647489,-0.00040292672,-0.0019856261,9.7555008,-0.38060001,1.354051,0.74863201,-0.115847,-0.64446998,-0.103858,-0.27102393,-1.422381,-0.041819207
21068409796960,1.2037668,0,,0.00047647489,-0.00040292672,-0.0019856261,9.7555008,-0.38060001,1.354051,0.74863201,-0.115847,-0.64446998,-0.103858,-0.27102393,-1.422381,-0.041819207
21068411773184,1.205743,0,,-0.0063133094,-0.0019042589,0.0042025434,9.8067541,-0.342682,1.36931,0.74862599,-0.115853,-0.64447498,-0.103864,-0.27103929,-1.4223955,-0.041821529
21068413749504,1.2077193,0,,-0.0063133094,-0.0019042589,0.0042025434,9.8067541,-0.342682,1.36931,0.74862599,-0.115853,-0.64447498,-0.103864,-0.27103929,-1.4223955,-0.041821529
21068415785184,1.209755,0,,-0.0063133094,-0.0019042589,0.0042025434,9.8067541,-0.342682,1.36931,0.74862599,-0.115853,-0.64447498,-0.103864,-0.27103929,-1.4223955,-0.041821529
21068417937024,1.2119068,0,,-0.0033520618,-0.0018478499,0.0034472347,9.7354345,-0.38254198,1.318593,0.74861801,-0.115869,-0.644481,-0.103866,-0.27120065,-1.4224128,-0.041685233
21068419784896,1.2137547,0,,-0.0033520618,-0.0018478499,0.0034472347,9.7354345,-0.38254198,1.318593,0.74861801,-0.115869,-0.644481,-0.103866,-0.27120065,-1.4224128,-0.041685233
21068421875552,1.2158454,0,,0.0040557613,0.0031065116,-0.001024805,9.7294607,-0.36735299,1.3516049,0.74861598,-0.115869,-0.64448297,-0.103868,-0.27118956,-1.4224188,-0.041698865
21068423786080,1.2177559,0,,0.0040557613,0.0031065116,-0.001024805,9.7294607,-0.36735299,1.3516049,0.74861598,-0.115869,-0.64448297,-0.103868,-0.27118956,-1.4224188,-0.041698865
21068425776512,1.2197463,0,,0.0040557613,0.0031065116,-0.001024805,9.7294607,-0.36735299,1.3516049,0.74861598,-0.115869,-0.64448297,-0.103868,-0.27118956,-1.4224188,-0.041698865
21068427780608,1.2217504,0,,0.0018043388,0.0012339827,0.00086123275,9.7008543,-0.43423301,1.322926,0.74861699,-0.115862,-0.64448297,-0.103866,-0.27112598,-1.4224188,-0.041749024
21068429803232,1.2237731,0,,0.0018043388,0.0012339827,0.00086123275,9.7008543,-0.43423301,1.322926,0.74861699,-0.115862,-0.64448297,-0.103866,-0.27112598,-1.4224188,-0.041749024
21068431773984,1.2257438,0,,-0.0020988283,-0.0018763511,-0.0034663286,9.7604599,-0.324166,1.340288,0.748613,-0.115868,-0.64448601,-0.10387,-0.27116518,-1.422429,-0.041725168
21068433775200,1.227745,0,,-0.0020988283,-0.0018763511,-0.0034663286,9.7604599,-0.324166,1.340288,0.748613,-0.115868,-0.64448601,-0.10387,-0.27116518,-1.422429,-0.041725168
21068435769120,1.2297389,0,,-0.0020988283,-0.0018763511,-0.0034663286,9.7604599,-0.324166,1.340288,0.748613,-0.115868,-0.64448601,-0.10387,-0.27116518,-1.422429,-0.041725168
21068437832064,1.2318019,0,,-0.0033911572,-0.0069351357,0.0010886491,9.6801434,-0.40626499,1.337768,0.74860001,-0.115869,-0.64450002,-0.103881,-0.27111508,-1.4224685,-0.041791456
21068439771040,1.2337409,0,,-0.0033911572,-0.0069351357,0.0010886491,9.6801434,-0.40626499,1.337768,0.74860001,-0.115869,-0.64450002,-0.103881,-0.27111508,-1.4224685,-0.041791456
21068441765664,1.2357355,0,,0.0027622278,0.00034831537,0.00064718553,9.5764341,-0.34178799,1.299504,0.74859202,-0.115875,-0.644508,-0.103881,-0.2711883,-1.4224903,-0.041726878
21068443804032,1.2377739,0,,0.0027622278,0.00034831537,0.00064718553,9.5764341,-0.34178799,1.299504,0.74859202,-0.115875,-0.644508,-0.103881,-0.2711883,-1.4224903,-0.041726878
21068445791968,1.2397618,0,,0.0027622278,0.00034831537,0.00064718553,9.5764341,-0.34178799,1.299504,0.74859202,-0.115875,-0.644508,-0.103881,-0.2711883,-1.4224903,-0.041726878
21068447766816,1.2417366,0,,0.0025586351,0.0038260759,0.0011927929,9.7151575,-0.41138899,1.344865,0.74859202,-0.115867,-0.64450902,-0.103879,-0.27111596,-1.4224911,-0.04178491
21068449805856,1.2437757,0,,0.0025586351,0.0038260759,0.0011927929,9.7151575,-0.41138899,1.344865,0.74859202,-0.115867,-0.64450902,-0.103879,-0.27111596,-1.4224911,-0.04178491
21068451789600,1.2457594,0,,0.0012584522,0.0029620856,-0.00094891804,9.7725267,-0.38652799,1.341404,0.74859601,-0.115866,-0.64450401,-0.10388,-0.27109171,-1.4224802,-0.041808142
21068453768544,1.2477384,0,,0.0012584522,0.0029620856,-0.00094891804,9.7725267,-0.38652799,1.341404,0.74859601,-0.115866,-0.64450401,-0.10388,-0.27109171,-1.4224802,-0.041808142
21068455791072,1.2497609,0,,0.0012584522,0.0029620856,-0.00094891804,9.7725267,-0.38652799,1.341404,0.74859601,-0.115866,-0.64450401,-0.10388,-0.27109171,-1.4224802,-0.041808142
21068457956832,1.2519267,0,,0.0024767793,-0.0043696762,0.0025656166,9.7797241,-0.394299,1.3602411,0.74859202,-0.115864,-0.64450997,-0.103879,-0.27109231,-1.4224935,-0.041804826
21068459748288,1.2537181,0,,0.0024767793,-0.0043696762,0.0025656166,9.7797241,-0.394299,1.3602411,0.74859202,-0.115864,-0.64450997,-0.103879,-0.27109231,-1.4224935,-0.041804826
21068461746656,1.2557165,0,,-0.0001348965,-0.0041834321,0.0013517749,9.6923885,-0.40579,1.33048,0.74858201,-0.11587,-0.644521,-0.103874,-0.27122565,-1.4225222,-0.0416723
21068463780192,1.25775,0,,-0.0001348965,-0.0041834321,0.0013517749,9.6923885,-0.40579,1.33048,0.74858201,-0.11587,-0.644521,-0.103874,-0.27122565,-1.4225222,-0.0416723
21068465779392,1.2597492,0,,-0.0001348965,-0.0041834321,0.0013517749,9.6923885,-0.40579,1.33048,0.74858201,-0.11587,-0.644521,-0.103874,-0.27122565,-1.4225222,-0.0416723
21068467741568,1.2617114,0,,0.0021404194,-0.0011817974,0.00093287848,9.8060627,-0.368276,1.3828909,0.74857599,-0.115872,-0.64452797,-0.103872,-0.27126643,-1.4225401,-0.041630168
21068469742112,1.2637119,0,,0.0021404194,-0.0011817974,0.00093287848,9.8060627,-0.368276,1.3828909,0.74857599,-0.115872,-0.64452797,-0.103872,-0.27126643,-1.4225401,-0.041630168
21068471774624,1.2657444,0,,-0.001819209,0.00053553683,0.0011497879,9.734417,-0.42149699,1.358609,0.74857402,-0.115872,-0.64453,-0.103872,-0.27127312,-1.4225451,-0.041623381
21068473769056,1.2677389,0,,-0.001819209,0.00053553683,0.0011497879,9.734417,-0.42149699,1.358609,0.74857402,-0.115872,-0.64453,-0.103872,-0.27127312,-1.4225451,-0.041623381
21068475768096,1.2697379,0,,-0.001819209,0.00053553683,0.0011497879,9.734417,-0.42149699,1.358609,0.74857402,-0.115872,-0.64453,-0.103872,-0.27127312,-1.4225451,-0.041623381
21068477982400,1.2719522,0,,-0.001819209,0.00053553683,0.0011497879,9.734417,-0.42149699,1.358609,0.74857402,-0.115872,-0.64453,-0.103872,-0.27127312,-1.4225451,-0.041623381
21068479769664,1.2737395,0,,-0.001819209,0.00053553683,0.0011497879,9.734417,-0.42149699,1.358609,0.74857402,-0.115872,-0.64453,-0.103872,-0.27127312,-1.4225451,-0.041623381
21068481786176,1.275756,0,,0.00084658939,-0.004777647,-0.0002968805,9.7127266,-0.390984,1.372184,0.74856502,-0.11588,-0.64454103,-0.103865,-0.27143497,-1.4225702,-0.041463017
21068483769824,1.2777396,0,,0.00084658939,-0.004777647,-0.0002968805,9.7127266,-0.390984,1.372184,0.74856502,-0.11588,-0.64454103,-0.103865,-0.27143497,-1.4225702,-0.041463017
21068485779008,1.2797488,0,,0.00084658939,-0.004777647,-0.0002968805,9.7127266,-0.390984,1.372184,0.74856502,-0.11588,-0.64454103,-0.103865,-0.27143497,-1.4225702,-0.041463017
21068487775968,1.2817458,0,,0.0010237054,-0.0019311719,0.0016198226,9.6658392,-0.37806401,1.38618,0.74855798,-0.115883,-0.64454901,-0.103861,-0.27152613,-1.4225921,-0.041371109
21068489768832,1.2837387,0,,0.0010237054,-0.0019311719,0.0016198226,9.6658392,-0.37806401,1.38618,0.74855798,-0.115883,-0.64454901,-0.103861,-0.27152613,-1.4225921,-0.041371109
21068491764160,1.285734,0,,0.0034888609,-0.0031034921,0.0042296657,9.6615591,-0.400785,1.389437,0.748555,-0.115883,-0.64455402,-0.103853,-0.271603,-1.4226006,-0.041281402
21068493792224,1.287762,0,,0.0034888609,-0.0031034921,0.0042296657,9.6615591,-0.400785,1.389437,0.748555,-0.115883,-0.64455402,-0.103853,-0.271603,-1.4226006,-0.041281402
21068495763008,1.2897328,0,,0.0034888609,-0.0031034921,0.0042296657,9.6615591,-0.400785,1.389437,0.748555,-0.115883,-0.64455402,-0.103853,-0.271603,-1.4226006,-0.041281402
21068497924224,1.291894,0,,0.0021722193,-0.00032567843,0.0027583532,9.7026157,-0.35885301,1.399237,0.74855202,-0.115885,-0.64455903,-0.103843,-0.27172228,-1.4226101,-0.04115139
21068499788128,1.293758,0,,0.0021722193,-0.00032567843,0.0027583532,9.7026157,-0.35885301,1.399237,0.74855202,-0.115885,-0.64455903,-0.103843,-0.27172228,-1.4226101,-0.04115139
21068501755808,1.2957256,0,,0.003922034,-0.0032494016,0.001060654,9.6892385,-0.41062099,1.422047,0.74855101,-0.115879,-0.64456201,-0.103836,-0.27171923,-1.4226162,-0.041135648
21068503763104,1.2977329,0,,0.003922034,-0.0032494016,0.001060654,9.6892385,-0.41062099,1.422047,0.74855101,-0.115879,-0.64456201,-0.103836,-0.27171923,-1.4226162,-0.041135648
21068505783104,1.2997529,0,,0.003922034,-0.0032494016,0.001060654,9.6892385,-0.41062099,1.422047,0.74855101,-0.115879,-0.64456201,-0.103836,-0.27171923,-1.4226162,-0.041135648
21068507790240,1.3017601,0,,-0.0022278255,-0.00060500095,0.00089407981,9.7226744,-0.36949798,1.424088,0.74854797,-0.115881,-0.64456499,-0.103835,-0.27175633,-1.422623,-0.041098926
21068509746208,1.303716,0,,-0.0022278255,-0.00060500095,0.00089407981,9.7226744,-0.36949798,1.424088,0.74854797,-0.115881,-0.64456499,-0.103835,-0.27175633,-1.422623,-0.041098926
21068511781408,1.3057512,0,,-0.0024500583,0.00014313446,0.00060100413,9.7305593,-0.39891899,1.444133,0.74854797,-0.115885,-0.64456397,-0.103838,-0.27177186,-1.4226226,-0.041094494
21068513799104,1.3077689,0,,-0.0024500583,0.00014313446,0.00060100413,9.7305593,-0.39891899,1.444133,0.74854797,-0.115885,-0.64456397,-0.103838,-0.27177186,-1.4226226,-0.041094494
21068515745632,1.3097155,0,,-0.0024500583,0.00014313446,0.00060100413,9.7305593,-0.39891899,1.444133,0.74854797,-0.115885,-0.64456397,-0.103838,-0.27177186,-1.4226226,-0.041094494
21068517942688,1.3119125,0,,-0.0053067433,0.00013376204,0.00059219021,9.749959,-0.402832,1.4365979,0.74854797,-0.115893,-0.64456201,-0.103845,-0.27178859,-1.422619,-0.0410995
21068519792480,1.3137623,0,,-0.0053067433,0.00013376204,0.00059219021,9.749959,-0.402832,1.4365979,0.74854797,-0.115893,-0.64456201,-0.103845,-0.27178859,-1.422619,-0.0410995
21068521830432,1.3158003,0,,-3.6302848e-06,-0.002030167,0.00061409406,9.7533112,-0.38738701,1.4487571,0.74854499,-0.1159,-0.64456302,-0.10385,-0.27181875,-1.4226243,-0.04108566
21068523741696,1.3177115,0,,-3.6302848e-06,-0.002030167,0.00061409406,9.7533112,-0.38738701,1.4487571,0.74854499,-0.1159,-0.64456302,-0.10385,-0.27181875,-1.4226243,-0.04108566
21068525741856,1.3197117,0,,-3.6302848e-06,-0.002030167,0.00061409406,9.7533112,-0.38738701,1.4487571,0.74854499,-0.1159,-0.64456302,-0.10385,-0.27181875,-1.4226243,-0.04108566
21068527768320,1.3217381,0,,0.0020392427,6.5746554e-05,0.00042711698,9.6746807,-0.43952098,1.44412,0.74854398,-0.115898,-0.64456499,-0.103846,-0.2718415,-1.4226279,-0.041053827
21068529786912,1.3237567,0,,0.0020392427,6.5746554e-05,0.00042711698,9.6746807,-0.43952098,1.44412,0.74854398,-0.115898,-0.64456499,-0.103846,-0.2718415,-1.4226279,-0.041053827
21068531786368,1.3257562,0,,-0.0011895465,0.0012478406,-0.0016749924,9.7390718,-0.36957601,1.449504,0.74854797,-0.115897,-0.64455998,-0.10385,-0.27178411,-1.4226152,-0.041115192
21068533803104,1.3277729,0,,-0.0011895465,0.0012478406,-0.0016749924,9.7390718,-0.36957601,1.449504,0.74854797,-0.115897,-0.64455998,-0.10385,-0.27178411,-1.4226152,-0.041115192
21068535785376,1.3297552,0,,-0.0011895465,0.0012478406,-0.0016749924,9.7390718,-0.36957601,1.449504,0.74854797,-0.115897,-0.64455998,-0.10385,-0.27178411,-1.4226152,-0.041115192
21068537795520,1.3317653,0,,0.0020758073,0.0010176666,0.0024551198,9.6753969,-0.415903,1.45674,0.74854898,-0.115896,-0.64455801,-0.103851,-0.2717663,-1.4226133,-0.041134287
21068539764768,1.3337346,0,,0.0020758073,0.0010176666,0.0024551198,9.6753969,-0.415903,1.45674,0.74854898,-0.115896,-0.64455801,-0.103851,-0.2717663,-1.4226133,-0.041134287
21068541763040,1.3357329,0,,0.003431579,0.0035295269,-0.00029342476,9.6784534,-0.37316099,1.432313,0.74855697,-0.115892,-0.64455098,-0.103846,-0.27175064,-1.4225915,-0.041138265
21068543784736,1.3377546,0,,0.003431579,0.0035295269,-0.00029342476,9.6784534,-0.37316099,1.432313,0.74855697,-0.115892,-0.64455098,-0.103846,-0.27175064,-1.4225915,-0.041138265
