t_recv_ns,t_s,t_stamp_ns,frame_id,angular_velocity.x,angular_velocity.y,angular_velocity.z,linear_acceleration.x,linear_acceleration.y,linear_acceleration.z,quaternion.w,quaternion.x,quaternion.y,quaternion.z,rpy.x,rpy.y,rpy.z
2417568675456,0,0,,0.0012021479,0.0011096105,0.0043722593,9.8106632,-0.499154,0.80127501,0.73486,-0.021578001,-0.677872,0.001535,-0.39950206,-1.4837979,0.37112878
2417568748064,7.2608e-05,0,,-0.0021470168,0.0022019073,-0.0015602545,9.9447079,-0.40548798,0.84326899,0.734864,-0.021585001,-0.67786801,0.001545,-0.39971508,-1.4837815,0.37134626
2417569647168,0.000971712,0,,-0.0021470168,0.0022019073,-0.0015602545,9.9447079,-0.40548798,0.84326899,0.734864,-0.021585001,-0.67786801,0.001545,-0.39971508,-1.4837815,0.37134626
2417571654816,0.00297936,0,,-0.0021470168,0.0022019073,-0.0015602545,9.9447079,-0.40548798,0.84326899,0.734864,-0.021585001,-0.67786801,0.001545,-0.39971508,-1.4837815,0.37134626
2417573807584,0.005132128,0,,0.0057657126,0.0027001291,-0.0034574624,9.9871635,-0.248548,0.89530498,0.73487097,-0.021582,-0.67786098,0.001545,-0.39957706,-1.4837624,0.3712136
2417575608384,0.006932928,0,,0.0057657126,0.0027001291,-0.0034574624,9.9871635,-0.248548,0.89530498,0.73487097,-0.021582,-0.67786098,0.001545,-0.39957706,-1.4837624,0.3712136
2417577608416,0.00893296,0,,0.0051582507,0.0013336758,-0.0041078069,9.8726044,-0.38989601,0.84387499,0.73487902,-0.021565,-0.67785197,0.001538,-0.3990935,-1.4837533,0.37074315
2417579607200,0.010931744,0,,0.0051582507,0.0013336758,-0.0041078069,9.8726044,-0.38989601,0.84387499,0.73487902,-0.021565,-0.67785197,0.001538,-0.3990935,-1.4837533,0.37074315
2417581605216,0.01292976,0,,0.0051582507,0.0013336758,-0.0041078069,9.8726044,-0.38989601,0.84387499,0.73487902,-0.021565,-0.67785197,0.001538,-0.3990935,-1.4837533,0.37074315
2417583603936,0.01492848,0,,0.0021106615,-0.00041306708,-0.0052798303,9.7858391,-0.36744899,0.78878099,0.73488301,-0.021553,-0.67784798,0.0015360001,-0.39882718,-1.4837506,0.37049075
2417585606784,0.016931328,0,,0.0021106615,-0.00041306708,-0.0052798303,9.7858391,-0.36744899,0.78878099,0.73488301,-0.021553,-0.67784798,0.0015360001,-0.39882718,-1.4837506,0.37049075
2417587627872,0.018952416,0,,-0.003113266,-0.0014613641,-0.00047376963,9.7764559,-0.35004601,0.805601,0.73488301,-0.021547999,-0.67784899,0.001529,-0.39867848,-1.4837597,0.37034001
2417589664320,0.020988864,0,,-0.003113266,-0.0014613641,-0.00047376963,9.7764559,-0.35004601,0.805601,0.73488301,-0.021547999,-0.67784899,0.001529,-0.39867848,-1.4837597,0.37034001
2417591655840,0.022980384,0,,-0.003113266,-0.0014613641,-0.00047376963,9.7764559,-0.35004601,0.805601,0.73488301,-0.021547999,-0.67784899,0.001529,-0.39867848,-1.4837597,0.37034001
2417593814880,0.025139424,0,,-0.0056375703,-0.0060261853,-0.0013657725,9.7415876,-0.30712599,0.80641401,0.73487699,-0.021557,-0.67785501,0.00152,-0.39875434,-1.4837734,0.37039051
2417595608864,0.026933408,0,,-0.0056375703,-0.0060261853,-0.0013657725,9.7415876,-0.30712599,0.80641401,0.73487699,-0.021557,-0.67785501,0.00152,-0.39875434,-1.4837734,0.37039051
2417597601504,0.028926048,0,,7.1610856e-05,-0.0071604573,-0.0016952033,9.7447882,-0.33355299,0.78971201,0.73486698,-0.021561,-0.67786598,0.001508,-0.39876553,-1.483807,0.37037826
2417599609120,0.030933664,0,,7.1610856e-05,-0.0071604573,-0.0016952033,9.7447882,-0.33355299,0.78971201,0.73486698,-0.021561,-0.67786598,0.001508,-0.39876553,-1.483807,0.37037826
2417601647328,0.032971872,0,,7.1610856e-05,-0.0071604573,-0.0016952033,9.7447882,-0.33355299,0.78971201,0.73486698,-0.021561,-0.67786598,0.001508,-0.39876553,-1.483807,0.37037826
2417603655488,0.034980032,0,,-0.0023841547,-0.0010263758,-0.0032581981,9.6652184,-0.40095401,0.76719201,0.73486102,-0.021561,-0.677872,0.001501,-0.39874063,-1.483824,0.37034414
2417605627392,0.036951936,0,,-0.0023841547,-0.0010263758,-0.0032581981,9.6652184,-0.40095401,0.76719201,0.73486102,-0.021561,-0.677872,0.001501,-0.39874063,-1.483824,0.37034414
2417607643840,0.038968384,0,,-0.0011264181,-0.00066121797,-0.007108185,9.6991377,-0.329822,0.76499999,0.73486,-0.021557,-0.67787302,0.001492,-0.39856486,-1.4838331,0.37016142
2417609628032,0.040952576,0,,-0.0011264181,-0.00066121797,-0.007108185,9.6991377,-0.329822,0.76499999,0.73486,-0.021557,-0.67787302,0.001492,-0.39856486,-1.4838331,0.37016142
2417611625760,0.042950304,0,,-0.0011264181,-0.00066121797,-0.007108185,9.6991377,-0.329822,0.76499999,0.73486,-0.021557,-0.67787302,0.001492,-0.39856486,-1.4838331,0.37016142
2417613708704,0.045033248,0,,-0.00094460711,-0.00048212975,-0.00051218433,9.7223244,-0.26521301,0.73767602,0.73486102,-0.021551,-0.67787302,0.001482,-0.39831456,-1.4838432,0.36990505
2417615624480,0.046949024,0,,-0.00094460711,-0.00048212975,-0.00051218433,9.7223244,-0.26521301,0.73767602,0.73486102,-0.021551,-0.67787302,0.001482,-0.39831456,-1.4838432,0.36990505
2417617619904,0.048944448,0,,-0.0015493288,-0.001755871,0.00013861406,9.8506212,-0.22652499,0.77689999,0.73485899,-0.021551,-0.67787498,0.001471,-0.398183,-1.4838542,0.36975778
2417619659136,0.05098368,0,,-0.0015493288,-0.001755871,0.00013861406,9.8506212,-0.22652499,0.77689999,0.73485899,-0.021551,-0.67787498,0.001471,-0.398183,-1.4838542,0.36975778
2417621620192,0.052944736,0,,-0.0015493288,-0.001755871,0.00013861406,9.8506212,-0.22652499,0.77689999,0.73485899,-0.021551,-0.67787498,0.001471,-0.398183,-1.4838542,0.36975778
2417623667008,0.054991552,0,,0.0012408244,-0.0035442227,0.0056273431,9.7919874,-0.195869,0.78301901,0.73485398,-0.021555999,-0.67787999,0.001466,-0.39824888,-1.4838653,0.36980888
2417625612608,0.056937152,0,,0.0012408244,-0.0035442227,0.0056273431,9.7919874,-0.195869,0.78301901,0.73485398,-0.021555999,-0.67787999,0.001466,-0.39824888,-1.4838653,0.36980888
2417627620160,0.058944704,0,,0.00018043214,-0.0018714293,0.0052330034,9.7944651,-0.27585599,0.780182,0.73484898,-0.021562999,-0.67788601,0.001466,-0.39843044,-1.4838755,0.36998212
2417629606432,0.060930976,0,,0.00018043214,-0.0018714293,0.0052330034,9.7944651,-0.27585599,0.780182,0.73484898,-0.021562999,-0.67788601,0.001466,-0.39843044,-1.4838755,0.36998212
2417631603520,0.062928064,0,,0.00018043214,-0.0018714293,0.0052330034,9.7944651,-0.27585599,0.780182,0.73484898,-0.021562999,-0.67788601,0.001466,-0.39843044,-1.4838755,0.36998212
2417633800192,0.065124736,0,,-0.0024502853,-0.00084505352,-0.00061323887,9.9024591,-0.338438,0.803527,0.73484701,-0.021568,-0.67788702,0.001462,-0.39846639,-1.4838797,0.37000349
2417635615040,0.066939584,0,,-0.0024502853,-0.00084505352,-0.00061323887,9.9024591,-0.338438,0.803527,0.73484701,-0.021568,-0.67788702,0.001462,-0.39846639,-1.4838797,0.37000349
2417637606336,0.06893088,0,,-0.0071576303,-0.0020500288,-0.0042554269,9.8976746,-0.42868799,0.79539198,0.734846,-0.021573,-0.67788899,0.001446,-0.39833553,-1.4838894,0.36984497
2417639598592,0.070923136,0,,-0.0071576303,-0.0020500288,-0.0042554269,9.8976746,-0.42868799,0.79539198,0.734846,-0.021573,-0.67788899,0.001446,-0.39833553,-1.4838894,0.36984497
2417641600000,0.072924544,0,,-0.0071576303,-0.0020500288,-0.0042554269,9.8976746,-0.42868799,0.79539198,0.734846,-0.021573,-0.67788899,0.001446,-0.39833553,-1.4838894,0.36984497
2417643596256,0.0749208,0,,-0.0078122509,-0.0033468783,-0.0048492054,9.8727417,-0.449595,0.77435702,0.73484302,-0.021581,-0.67789102,0.001431,-0.39828786,-1.4838995,0.36976387
2417645596800,0.076921344,0,,-0.0078122509,-0.0033468783,-0.0048492054,9.8727417,-0.449595,0.77435702,0.73484302,-0.021581,-0.67789102,0.001431,-0.39828786,-1.4838995,0.36976387
2417647592064,0.078916608,0,,-0.0095999041,-0.0012516978,-0.0071605276,9.816576,-0.38843,0.78784102,0.73483902,-0.021588,-0.67789501,0.001413,-0.39818017,-1.4839139,0.36962016
2417649591424,0.080915968,0,,-0.0095999041,-0.0012516978,-0.0071605276,9.816576,-0.38843,0.78784102,0.73483902,-0.021588,-0.67789501,0.001413,-0.39818017,-1.4839139,0.36962016
2417651590784,0.082915328,0,,-0.0095999041,-0.0012516978,-0.0071605276,9.816576,-0.38843,0.78784102,0.73483902,-0.021588,-0.67789501,0.001413,-0.39818017,-1.4839139,0.36962016
2417653820928,0.085145472,0,,-0.0055763618,-0.0070531023,-0.008560683,9.8552141,-0.35194799,0.82414401,0.73483402,-0.021588,-0.67790097,0.00139,-0.39792284,-1.4839423,0.36932951
2417655591680,0.086916224,0,,-0.0055763618,-0.0070531023,-0.008560683,9.8552141,-0.35194799,0.82414401,0.73483402,-0.021588,-0.67790097,0.00139,-0.39792284,-1.4839423,0.36932951
2417657656224,0.088980768,0,,-0.0032167813,-0.0051882357,-0.008287853,9.7916002,-0.34957701,0.82036602,0.734824,-0.021586999,-0.677912,0.001365,-0.39766212,-1.4839869,0.36903566
2417659606464,0.090931008,0,,-0.0032167813,-0.0051882357,-0.008287853,9.7916002,-0.34957701,0.82036602,0.734824,-0.021586999,-0.677912,0.001365,-0.39766212,-1.4839869,0.36903566
2417661633664,0.092958208,0,,-0.0032167813,-0.0051882357,-0.008287853,9.7916002,-0.34957701,0.82036602,0.734824,-0.021586999,-0.677912,0.001365,-0.39766212,-1.4839869,0.36903566
2417663616064,0.094940608,0,,-0.0010531316,-0.0044079165,-0.0092668955,9.7204952,-0.38227701,0.81306601,0.73481798,-0.021575,-0.67791802,0.001344,-0.39725099,-1.4840158,0.36861289
2417665612928,0.096937472,0,,-0.0010531316,-0.0044079165,-0.0092668955,9.7204952,-0.38227701,0.81306601,0.73481798,-0.021575,-0.67791802,0.001344,-0.39725099,-1.4840158,0.36861289
2417667611936,0.09893648,0,,0.0014017961,-0.0051759831,-0.0049469611,9.6992931,-0.31355801,0.82437497,0.73481202,-0.021567,-0.67792499,0.001329,-0.39698417,-1.4840467,0.36833459
2417669613728,0.10093827,0,,0.0014017961,-0.0051759831,-0.0049469611,9.6992931,-0.31355801,0.82437497,0.73481202,-0.021567,-0.67792499,0.001329,-0.39698417,-1.4840467,0.36833459
2417671623520,0.10294806,0,,0.0014017961,-0.0051759831,-0.0049469611,9.6992931,-0.31355801,0.82437497,0.73481202,-0.021567,-0.67792499,0.001329,-0.39698417,-1.4840467,0.36833459
2417673780928,0.10510547,0,,9.2450091e-05,-0.0010421012,-0.0017679836,9.6145315,-0.291051,0.82098103,0.73480999,-0.021559,-0.67792797,0.0013220001,-0.39678367,-1.484061,0.36813671
2417675629888,0.10695443,0,,9.2450091e-05,-0.0010421012,-0.0017679836,9.6145315,-0.291051,0.82098103,0.73480999,-0.021559,-0.67792797,0.0013220001,-0.39678367,-1.484061,0.36813671
2417677618176,0.10894272,0,,0.00088092005,0.0011176565,0.004055831,9.7176485,-0.30758101,0.80160803,0.73481399,-0.021562001,-0.67792302,0.001319,-0.39672565,-1.4840509,0.3680696
2417679616672,0.11094122,0,,0.00088092005,0.0011176565,0.004055831,9.7176485,-0.30758101,0.80160803,0.73481399,-0.021562001,-0.67792302,0.001319,-0.39672565,-1.4840509,0.3680696
2417681613280,0.11293782,0,,0.00088092005,0.0011176565,0.004055831,9.7176485,-0.30758101,0.80160803,0.73481399,-0.021562001,-0.67792302,0.001319,-0.39672565,-1.4840509,0.3680696
2417683614400,0.11493894,0,,0.00072302008,0.003734324,0.007031216,9.7926836,-0.31898499,0.81625402,0.73482001,-0.021569001,-0.677917,0.001329,-0.39691733,-1.4840248,0.36826641
2417685615680,0.11694022,0,,0.00072302008,0.003734324,0.007031216,9.7926836,-0.31898499,0.81625402,0.73482001,-0.021569001,-0.677917,0.001329,-0.39691733,-1.4840248,0.36826641
2417687612032,0.11893658,0,,-0.0024409476,-0.003007848,0.0014749079,9.7626171,-0.46075499,0.79949498,0.73482299,-0.021581,-0.67791402,0.001331,-0.39710199,-1.4840108,0.36843542
2417689644576,0.12096912,0,,-0.0024409476,-0.003007848,0.0014749079,9.7626171,-0.46075499,0.79949498,0.73482299,-0.021581,-0.67791402,0.001331,-0.39710199,-1.4840108,0.36843542
2417691644992,0.12296954,0,,-0.0024409476,-0.003007848,0.0014749079,9.7626171,-0.46075499,0.79949498,0.73482299,-0.021581,-0.67791402,0.001331,-0.39710199,-1.4840108,0.36843542
2417693692736,0.12501728,0,,-0.0074546503,-0.0022540928,0.0039180897,9.806901,-0.381044,0.78532702,0.73481899,-0.021597,-0.677917,0.001335,-0.39746391,-1.4840082,0.3687809
2417695652704,0.12697725,0,,-0.0074546503,-0.0022540928,0.0039180897,9.806901,-0.381044,0.78532702,0.73481899,-0.021597,-0.677917,0.001335,-0.39746391,-1.4840082,0.3687809
2417697605056,0.1289296,0,,-0.006594081,-0.0041577583,0.004733193,9.8320198,-0.27111599,0.80004001,0.73481399,-0.021619,-0.67792201,0.001332,-0.39782603,-1.4840102,0.36910724
2417699601312,0.13092586,0,,-0.006594081,-0.0041577583,0.004733193,9.8320198,-0.27111599,0.80004001,0.73481399,-0.021619,-0.67792201,0.001332,-0.39782603,-1.4840102,0.36910724
2417701595136,0.13291968,0,,-0.006594081,-0.0041577583,0.004733193,9.8320198,-0.27111599,0.80004001,0.73481399,-0.021619,-0.67792201,0.001332,-0.39782603,-1.4840102,0.36910724
2417703594144,0.13491869,0,,-0.006594081,-0.0041577583,0.004733193,9.8320198,-0.27111599,0.80004001,0.73481399,-0.021619,-0.67792201,0.001332,-0.39782603,-1.4840102,0.36910724
2417705596640,0.13692118,0,,-0.006594081,-0.0041577583,0.004733193,9.8320198,-0.27111599,0.80004001,0.73481399,-0.021619,-0.67792201,0.001332,-0.39782603,-1.4840102,0.36910724
2417707591008,0.13891555,0,,0.0012730257,-0.001723565,-0.0027442161,9.8995838,-0.29198,0.792539,0.734806,-0.021639001,-0.67792898,0.001317,-0.39801202,-1.4840303,0.36924525
2417709591360,0.1409159,0,,0.0012730257,-0.001723565,-0.0027442161,9.8995838,-0.29198,0.792539,0.734806,-0.021639001,-0.67792898,0.001317,-0.39801202,-1.4840303,0.36924525
2417711587168,0.14291171,0,,0.0012730257,-0.001723565,-0.0027442161,9.8995838,-0.29198,0.792539,0.734806,-0.021639001,-0.67792898,0.001317,-0.39801202,-1.4840303,0.36924525
2417713784736,0.14510928,0,,0.0031324821,-0.0036760299,-0.0016218996,9.8549538,-0.254374,0.80972099,0.73480302,-0.02163,-0.67793298,0.001313,-0.39786039,-1.4840427,0.36909915
2417715616096,0.14694064,0,,0.0031324821,-0.0036760299,-0.0016218996,9.8549538,-0.254374,0.80972099,0.73480302,-0.02163,-0.67793298,0.001313,-0.39786039,-1.4840427,0.36909915
2417717623328,0.14894787,0,,0.0022910239,-0.0038370539,-0.0020212832,9.8822918,-0.354637,0.79860699,0.73479801,-0.021622,-0.677939,0.001306,-0.39768975,-1.4840673,0.36893064
2417719616256,0.1509408,0,,0.0022910239,-0.0038370539,-0.0020212832,9.8822918,-0.354637,0.79860699,0.73479801,-0.021622,-0.677939,0.001306,-0.39768975,-1.4840673,0.36893064
2417721616800,0.15294134,0,,0.0022910239,-0.0038370539,-0.0020212832,9.8822918,-0.354637,0.79860699,0.73479801,-0.021622,-0.677939,0.001306,-0.39768975,-1.4840673,0.36893064
2417723676096,0.15500064,0,,-0.0011923042,-0.0071584678,-0.0035490746,9.829072,-0.42834601,0.74658298,0.73479098,-0.021616001,-0.67794698,0.001301,-0.39762783,-1.4840927,0.36886998
2417725622912,0.15694746,0,,-0.0011923042,-0.0071584678,-0.0035490746,9.829072,-0.42834601,0.74658298,0.73479098,-0.021616001,-0.67794698,0.001301,-0.39762783,-1.4840927,0.36886998
2417727624928,0.15894947,0,,-0.0037683404,-0.0048507586,-0.0055989987,9.7979546,-0.368525,0.76009601,0.73478001,-0.021610999,-0.67795902,0.001298,-0.39764297,-1.4841265,0.36888852
2417729613760,0.1609383,0,,-0.0037683404,-0.0048507586,-0.0055989987,9.7979546,-0.368525,0.76009601,0.73478001,-0.021610999,-0.67795902,0.001298,-0.39764297,-1.4841265,0.36888852
2417731608000,0.16293254,0,,-0.0037683404,-0.0048507586,-0.0055989987,9.7979546,-0.368525,0.76009601,0.73478001,-0.021610999,-0.67795902,0.001298,-0.39764297,-1.4841265,0.36888852
2417733702496,0.16502704,0,,-0.0043247687,-0.010218187,-0.0090233349,9.8622293,-0.311804,0.803666,0.73476601,-0.021606,-0.67797399,0.001278,-0.39744637,-1.4841769,0.36867134
2417735620384,0.16694493,0,,-0.0043247687,-0.010218187,-0.0090233349,9.8622293,-0.311804,0.803666,0.73476601,-0.021606,-0.67797399,0.001278,-0.39744637,-1.4841769,0.36867134
2417737607296,0.16893184,0,,-0.0059084283,-0.0075417424,-0.0025523346,9.7719078,-0.26448199,0.78952801,0.734752,-0.021606,-0.67798901,0.001255,-0.39729017,-1.4842284,0.36848016
2417739604000,0.17092854,0,,-0.0059084283,-0.0075417424,-0.0025523346,9.7719078,-0.26448199,0.78952801,0.734752,-0.021606,-0.67798901,0.001255,-0.39729017,-1.4842284,0.36848016
2417741601696,0.17292624,0,,-0.0059084283,-0.0075417424,-0.0025523346,9.7719078,-0.26448199,0.78952801,0.734752,-0.021606,-0.67798901,0.001255,-0.39729017,-1.4842284,0.36848016
2417743600000,0.17492454,0,,-0.0017035286,-0.0020254895,-0.0067311241,9.7567463,-0.219906,0.793805,0.73474598,-0.021604,-0.67799598,0.001237,-0.39707146,-1.4842546,0.36824084
2417745600768,0.17692531,0,,-0.0017035286,-0.0020254895,-0.0067311241,9.7567463,-0.219906,0.793805,0.73474598,-0.021604,-0.67799598,0.001237,-0.39707146,-1.4842546,0.36824084
2417747597152,0.1789217,0,,-0.0032063794,-0.0038347502,-0.0075176741,9.753087,-0.39274001,0.788508,0.73474199,-0.021596,-0.67800099,0.001209,-0.39659735,-1.4842857,0.36773801
2417749613184,0.18093773,0,,-0.0032063794,-0.0038347502,-0.0075176741,9.753087,-0.39274001,0.788508,0.73474199,-0.021596,-0.67800099,0.001209,-0.39659735,-1.4842857,0.36773801
2417751597440,0.18292198,0,,-0.0032063794,-0.0038347502,-0.0075176741,9.753087,-0.39274001,0.788508,0.73474199,-0.021596,-0.67800099,0.001209,-0.39659735,-1.4842857,0.36773801
2417753766816,0.18509136,0,,-0.00068556535,-0.0012488529,-0.0064676667,9.7046251,-0.41911399,0.76755202,0.73473901,-0.021588,-0.67800403,0.001194,-0.39630081,-1.4843058,0.36743108
2417755597472,0.18692202,0,,-0.00068556535,-0.0012488529,-0.0064676667,9.7046251,-0.41911399,0.76755202,0.73473901,-0.021588,-0.67800403,0.001194,-0.39630081,-1.4843058,0.36743108
2417757670496,0.18899504,0,,0.0020769419,-0.0062824698,-0.0049294555,9.7877741,-0.225568,0.81427997,0.73473501,-0.021582,-0.67800897,0.001189,-0.39618193,-1.4843223,0.36731403
2417759606912,0.19093146,0,,0.0020769419,-0.0062824698,-0.0049294555,9.7877741,-0.225568,0.81427997,0.73473501,-0.021582,-0.67800897,0.001189,-0.39618193,-1.4843223,0.36731403
2417761615840,0.19294038,0,,0.0020769419,-0.0062824698,-0.0049294555,9.7877741,-0.225568,0.81427997,0.73473501,-0.021582,-0.67800897,0.001189,-0.39618193,-1.4843223,0.36731403
2417763587360,0.1949119,0,,0.0038816821,-0.0058822831,-0.0050842835,9.8329039,-0.25369599,0.88374299,0.73472703,-0.021563999,-0.67801797,0.001177,-0.39583762,-1.484363,0.36697821
2417765604800,0.19692934,0,,0.0038816821,-0.0058822831,-0.0050842835,9.8329039,-0.25369599,0.88374299,0.73472703,-0.021563999,-0.67801797,0.001177,-0.39583762,-1.484363,0.36697821
2417767624000,0.19894854,0,,0.00066779785,-0.0035734743,-0.0031484517,9.7667418,-0.55801398,0.79393297,0.73472202,-0.021557,-0.67802399,0.001163,-0.3955708,-1.4843878,0.3667027
2417769588000,0.20091254,0,,0.00066779785,-0.0035734743,-0.0031484517,9.7667418,-0.55801398,0.79393297,0.73472202,-0.021557,-0.67802399,0.001163,-0.3955708,-1.4843878,0.3667027
2417771601440,0.20292598,0,,0.00066779785,-0.0035734743,-0.0031484517,9.7667418,-0.55801398,0.79393297,0.73472202,-0.021557,-0.67802399,0.001163,-0.3955708,-1.4843878,0.3667027
2417773844352,0.2051689,0,,-0.0025110925,-0.00077077233,-0.0061524602,9.7818861,-0.48028699,0.77463597,0.73471999,-0.021554999,-0.67802602,0.001167,-0.39562556,-1.4843907,0.36676539
2417775614432,0.20693898,0,,-0.0025110925,-0.00077077233,-0.0061524602,9.7818861,-0.48028699,0.77463597,0.73471999,-0.021554999,-0.67802602,0.001167,-0.39562556,-1.4843907,0.36676539
2417777611232,0.20893578,0,,-0.0041838859,-0.0001417731,-0.0097135253,9.8772411,-0.230591,0.86827201,0.73471999,-0.021548999,-0.67802602,0.0011549999,-0.39535236,-1.4844022,0.36648306
2417779608192,0.21093274,0,,-0.0041838859,-0.0001417731,-0.0097135253,9.8772411,-0.230591,0.86827201,0.73471999,-0.021548999,-0.67802602,0.0011549999,-0.39535236,-1.4844022,0.36648306
2417781632256,0.2129568,0,,-0.0041838859,-0.0001417731,-0.0097135253,9.8772411,-0.230591,0.86827201,0.73471999,-0.021548999,-0.67802602,0.0011549999,-0.39535236,-1.4844022,0.36648306
2417783607040,0.21493158,0,,-0.0013496631,-0.0078775962,-0.0078228797,9.8731489,-0.276683,0.85594398,0.73471701,-0.021539001,-0.678029,0.001122,-0.3947636,-1.4844327,0.36586091
2417785621440,0.21694598,0,,-0.0013496631,-0.0078775962,-0.0078228797,9.8731489,-0.276683,0.85594398,0.73471701,-0.021539001,-0.678029,0.001122,-0.3947636,-1.4844327,0.36586091
2417787613472,0.21893802,0,,0.0037396124,-0.0054931448,-0.0027079308,9.7391253,-0.36603799,0.77141702,0.73470998,-0.021531001,-0.678038,0.0011080001,-0.39453566,-1.4844653,0.36562562
2417789644064,0.22096861,0,,0.0037396124,-0.0054931448,-0.0027079308,9.7391253,-0.36603799,0.77141702,0.73470998,-0.021531001,-0.678038,0.0011080001,-0.39453566,-1.4844653,0.36562562
2417791689824,0.22301437,0,,0.0037396124,-0.0054931448,-0.0027079308,9.7391253,-0.36603799,0.77141702,0.73470998,-0.021531001,-0.678038,0.0011080001,-0.39453566,-1.4844653,0.36562562
2417793779200,0.22510374,0,,0.0012631122,-0.0093022563,-0.0082556865,9.7954054,-0.373393,0.81629902,0.73469698,-0.021517999,-0.67805201,0.001105,-0.39443826,-1.4845068,0.36554193
2417795626304,0.22695085,0,,0.0012631122,-0.0093022563,-0.0082556865,9.7954054,-0.373393,0.81629902,0.73469698,-0.021517999,-0.67805201,0.001105,-0.39443826,-1.4845068,0.36554193
2417797629408,0.22895395,0,,-0.0013818645,-0.0062546315,-0.011456533,9.8416748,-0.426543,0.813133,0.73468697,-0.021500999,-0.67806298,0.001086,-0.39402078,-1.4845537,0.36512108
2417799635072,0.23095962,0,,-0.0013818645,-0.0062546315,-0.011456533,9.8416748,-0.426543,0.813133,0.73468697,-0.021500999,-0.67806298,0.001086,-0.39402078,-1.4845537,0.36512108
2417801596608,0.23292115,0,,-0.0013818645,-0.0062546315,-0.011456533,9.8416748,-0.426543,0.813133,0.73468697,-0.021500999,-0.67806298,0.001086,-0.39402078,-1.4845537,0.36512108
2417803628480,0.23495302,0,,0.0014738781,-0.0036687694,-0.013289635,9.7731962,-0.33113599,0.75638002,0.73468202,-0.021483,-0.678069,0.001068,-0.39353678,-1.4845877,0.36463835
2417805600672,0.23692522,0,,0.0014738781,-0.0036687694,-0.013289635,9.7731962,-0.33113599,0.75638002,0.73468202,-0.021483,-0.678069,0.001068,-0.39353678,-1.4845877,0.36463835
2417807658368,0.23898291,0,,0.0086147883,-0.0041803603,-0.013146378,9.8089676,-0.20889699,0.817698,0.73467702,-0.021451,-0.67807597,0.001051,-0.39285601,-1.4846307,0.36397859
2417809630784,0.24095533,0,,0.0086147883,-0.0041803603,-0.013146378,9.8089676,-0.20889699,0.817698,0.73467702,-0.021451,-0.67807597,0.001051,-0.39285601,-1.4846307,0.36397859
2417811594976,0.24291952,0,,0.0086147883,-0.0041803603,-0.013146378,9.8089676,-0.20889699,0.817698,0.73467702,-0.021451,-0.67807597,0.001051,-0.39285601,-1.4846307,0.36397859
2417813750656,0.2450752,0,,0.0023483929,-0.010231102,-0.014212041,9.8122978,-0.30794099,0.82642698,0.73466802,-0.021415001,-0.678087,0.001026,-0.3920237,-1.4846895,0.36316166
2417815593536,0.24691808,0,,0.0023483929,-0.010231102,-0.014212041,9.8122978,-0.30794099,0.82642698,0.73466802,-0.021415001,-0.678087,0.001026,-0.3920237,-1.4846895,0.36316166
2417817588960,0.2489135,0,,-0.00085657267,-0.008630269,-0.014425355,9.7753658,-0.42626899,0.72221297,0.734653,-0.02139,-0.67810398,0.00099800003,-0.39142819,-1.4847582,0.36256122
2417819584896,0.25090944,0,,-0.00085657267,-0.008630269,-0.014425355,9.7753658,-0.42626899,0.72221297,0.734653,-0.02139,-0.67810398,0.00099800003,-0.39142819,-1.4847582,0.36256122
2417821597408,0.25292195,0,,-0.00085657267,-0.008630269,-0.014425355,9.7753658,-0.42626899,0.72221297,0.734653,-0.02139,-0.67810398,0.00099800003,-0.39142819,-1.4847582,0.36256122
2417823644640,0.25496918,0,,0.0064753285,-0.0029369876,-0.013634494,9.7856884,-0.31661201,0.75957,0.73464197,-0.021362999,-0.67811698,0.00098100002,-0.39087835,-1.484811,0.36202699
2417825589536,0.25691408,0,,0.0064753285,-0.0029369876,-0.013634494,9.7856884,-0.31661201,0.75957,0.73464197,-0.021362999,-0.67811698,0.00098100002,-0.39087835,-1.484811,0.36202699
2417827592128,0.25891667,0,,-0.00064762187,-0.0079043167,-0.014599417,9.7916393,-0.264505,0.80932099,0.73463398,-0.021330999,-0.67812699,0.00095900003,-0.39015074,-1.4848637,0.36131336
2417829581536,0.26090608,0,,-0.00064762187,-0.0079043167,-0.014599417,9.7916393,-0.264505,0.80932099,0.73463398,-0.021330999,-0.67812699,0.00095900003,-0.39015074,-1.4848637,0.36131336
2417831611904,0.26293645,0,,-0.00064762187,-0.0079043167,-0.014599417,9.7916393,-0.264505,0.80932099,0.73463398,-0.021330999,-0.67812699,0.00095900003,-0.39015074,-1.4848637,0.36131336
2417833673024,0.26499757,0,,0.00074619804,-0.0068973141,-0.008643848,9.802578,-0.197579,0.800394,0.73462397,-0.021314001,-0.67813802,0.00092899997,-0.38958225,-1.4849166,0.36072643
2417835624224,0.26694877,0,,0.00074619804,-0.0068973141,-0.008643848,9.802578,-0.197579,0.800394,0.73462397,-0.021314001,-0.67813802,0.00092899997,-0.38958225,-1.4849166,0.36072643
2417837633728,0.26895827,0,,0.006701139,-0.008193291,-0.0087656897,9.7070189,-0.27225,0.768112,0.734613,-0.021289,-0.67815101,0.00091200002,-0.38908158,-1.48497,0.36023685
2417839608704,0.27093325,0,,0.006701139,-0.008193291,-0.0087656897,9.7070189,-0.27225,0.768112,0.734613,-0.021289,-0.67815101,0.00091200002,-0.38908158,-1.48497,0.36023685
2417841607296,0.27293184,0,,0.006701139,-0.008193291,-0.0087656897,9.7070189,-0.27225,0.768112,0.734613,-0.021289,-0.67815101,0.00091200002,-0.38908158,-1.48497,0.36023685
2417843603072,0.27492762,0,,-0.0029468837,-0.0042639789,-0.0072638681,9.7724047,-0.36098799,0.78836203,0.73460197,-0.021274,-0.67816299,0.00089899998,-0.38877178,-1.4850131,0.35993065
2417845637056,0.2769616,0,,-0.0029468837,-0.0042639789,-0.0072638681,9.7724047,-0.36098799,0.78836203,0.73460197,-0.021274,-0.67816299,0.00089899998,-0.38877178,-1.4850131,0.35993065
2417847640512,0.27896506,0,,-0.0047087934,-0.0062237742,-0.0080643987,9.7757864,-0.37604299,0.77895099,0.734595,-0.021269999,-0.67817098,0.000879,-0.3885034,-1.4850479,0.3596387
2417849626528,0.28095107,0,,-0.0047087934,-0.0062237742,-0.0080643987,9.7757864,-0.37604299,0.77895099,0.734595,-0.021269999,-0.67817098,0.000879,-0.3885034,-1.4850479,0.3596387
2417851642688,0.28296723,0,,-0.0047087934,-0.0062237742,-0.0080643987,9.7757864,-0.37604299,0.77895099,0.734595,-0.021269999,-0.67817098,0.000879,-0.3885034,-1.4850479,0.3596387
2417853792416,0.28511696,0,,0.0063406937,-0.0036303023,-0.010103118,9.7455425,-0.28579599,0.78124303,0.734586,-0.021256,-0.67818099,0.00086299999,-0.38817344,-1.4850877,0.35930507
2417855603296,0.28692784,0,,0.0063406937,-0.0036303023,-0.010103118,9.7455425,-0.28579599,0.78124303,0.734586,-0.021256,-0.67818099,0.00086299999,-0.38817344,-1.4850877,0.35930507
2417857675520,0.28900006,0,,0.011520622,-0.00077253511,-0.0063176033,9.7886724,-0.26297,0.82661897,0.734586,-0.021222999,-0.67818201,0.00085999997,-0.38760998,-1.4851071,0.35878519
2417859599136,0.29092368,0,,0.011520622,-0.00077253511,-0.0063176033,9.7886724,-0.26297,0.82661897,0.734586,-0.021222999,-0.67818201,0.00085999997,-0.38760998,-1.4851071,0.35878519
2417861622016,0.29294656,0,,0.011520622,-0.00077253511,-0.0063176033,9.7886724,-0.26297,0.82661897,0.734586,-0.021222999,-0.67818201,0.00085999997,-0.38760998,-1.4851071,0.35878519
2417863594688,0.29491923,0,,0.0088477202,-0.0022597476,-0.0042546763,9.6888447,-0.427093,0.77487397,0.734586,-0.021196,-0.67818201,0.00085800001,-0.38713624,-1.4851208,0.35834683
2417865589248,0.29691379,0,,0.0088477202,-0.0022597476,-0.0042546763,9.6888447,-0.427093,0.77487397,0.734586,-0.021196,-0.67818201,0.00085800001,-0.38713624,-1.4851208,0.35834683
2417867588480,0.29891302,0,,0.0089321757,-0.002572179,-0.006158534,9.763998,-0.37229899,0.76698798,0.73458302,-0.021175001,-0.67818701,0.00087300001,-0.38706506,-1.4851363,0.35832663
2417869592224,0.30091677,0,,0.0089321757,-0.002572179,-0.006158534,9.763998,-0.37229899,0.76698798,0.73458302,-0.021175001,-0.67818701,0.00087300001,-0.38706506,-1.4851363,0.35832663
2417871588608,0.30291315,0,,0.0089321757,-0.002572179,-0.006158534,9.763998,-0.37229899,0.76698798,0.73458302,-0.021175001,-0.67818701,0.00087300001,-0.38706506,-1.4851363,0.35832663
2417873790816,0.30511536,0,,0.0064631461,-0.0018097493,-0.0056337831,9.7786503,-0.25008801,0.84940201,0.73458099,-0.021152001,-0.67818999,0.00087599998,-0.38676772,-1.4851552,0.35806637
2417875586976,0.30691152,0,,0.0064631461,-0.0018097493,-0.0056337831,9.7786503,-0.25008801,0.84940201,0.73458099,-0.021152001,-0.67818999,0.00087599998,-0.38676772,-1.4851552,0.35806637
2417877655680,0.30898022,0,,0.007291462,-0.0042143942,-0.0029951769,9.8238306,-0.25084299,0.85653502,0.73457998,-0.021136001,-0.67819202,0.00087300001,-0.38648786,-1.485167,0.35780521
2417879582848,0.31090739,0,,0.007291462,-0.0042143942,-0.0029951769,9.8238306,-0.25084299,0.85653502,0.73457998,-0.021136001,-0.67819202,0.00087300001,-0.38648786,-1.485167,0.35780521
2417881583520,0.31290806,0,,0.007291462,-0.0042143942,-0.0029951769,9.8238306,-0.25084299,0.85653502,0.73457998,-0.021136001,-0.67819202,0.00087300001,-0.38648786,-1.485167,0.35780521
2417883579616,0.31490416,0,,0.0086093949,-0.0074627136,-0.0026859745,9.7499094,-0.45241001,0.766424,0.73457599,-0.021113001,-0.67819703,0.00087499997,-0.38619697,-1.4851914,0.35754772
2417885587584,0.31691213,0,,0.0086093949,-0.0074627136,-0.0026859745,9.7499094,-0.45241001,0.766424,0.73457599,-0.021113001,-0.67819703,0.00087499997,-0.38619697,-1.4851914,0.35754772
2417887581472,0.31890602,0,,0.0038276642,-0.0078636333,-0.0020397313,9.776371,-0.41151899,0.78230798,0.73456299,-0.021103,-0.67821097,0.000887,-0.38637481,-1.485225,0.35775774
2417889667616,0.32099216,0,,0.0038276642,-0.0078636333,-0.0020397313,9.776371,-0.41151899,0.78230798,0.73456299,-0.021103,-0.67821097,0.000887,-0.38637481,-1.485225,0.35775774
2417891628448,0.32295299,0,,0.0038276642,-0.0078636333,-0.0020397313,9.776371,-0.41151899,0.78230798,0.73456299,-0.021103,-0.67821097,0.000887,-0.38637481,-1.485225,0.35775774
2417893653120,0.32497766,0,,0.00034470251,-0.002845358,-0.0065105841,9.8782921,-0.30516601,0.82975501,0.73455501,-0.021093,-0.67821997,0.00088800001,-0.38634045,-1.4852492,0.3577394
2417895606080,0.32693062,0,,0.00034470251,-0.002845358,-0.0065105841,9.8782921,-0.30516601,0.82975501,0.73455501,-0.021093,-0.67821997,0.00088800001,-0.38634045,-1.4852492,0.3577394
2417897602016,0.32892656,0,,0.0032047737,0.00027925269,-0.003875329,9.8881693,-0.272594,0.83412099,0.73455602,-0.021082001,-0.67821801,0.00087599998,-0.38595133,-1.4852591,0.35734885
2417899600672,0.33092522,0,,0.0032047737,0.00027925269,-0.003875329,9.8881693,-0.272594,0.83412099,0.73455602,-0.021082001,-0.67821801,0.00087599998,-0.38595133,-1.4852591,0.35734885
2417901619712,0.33294426,0,,0.0032047737,0.00027925269,-0.003875329,9.8881693,-0.272594,0.83412099,0.73455602,-0.021082001,-0.67821801,0.00087599998,-0.38595133,-1.4852591,0.35734885
2417903599552,0.3349241,0,,0.0034991235,-0.00025967009,-0.0037680437,9.6808023,-0.36135399,0.7647,0.734559,-0.02107,-0.67821598,0.00086899998,-0.38563511,-1.4852611,0.35703826
2417905598080,0.33692262,0,,0.0034991235,-0.00025967009,-0.0037680437,9.6808023,-0.36135399,0.7647,0.734559,-0.02107,-0.67821598,0.00086899998,-0.38563511,-1.4852611,0.35703826
2417907595744,0.33892029,0,,0.0073995853,-0.0024605302,-0.0040594614,9.8025761,-0.33669201,0.79859698,0.73455799,-0.021052999,-0.67821699,0.000871,-0.38540668,-1.4852716,0.35683762
2417909594144,0.34091869,0,,0.0073995853,-0.0024605302,-0.0040594614,9.8025761,-0.33669201,0.79859698,0.73455799,-0.021052999,-0.67821699,0.000871,-0.38540668,-1.4852716,0.35683762
2417911596896,0.34292144,0,,0.0073995853,-0.0024605302,-0.0040594614,9.8025761,-0.33669201,0.79859698,0.73455799,-0.021052999,-0.67821699,0.000871,-0.38540668,-1.4852716,0.35683762
2417913795712,0.34512026,0,,0.006737512,-0.0018183713,-0.0045604059,9.7175159,-0.35892299,0.76385897,0.73455602,-0.021035001,-0.67821997,0.00087300001,-0.38516566,-1.4852876,0.356625
2417915591776,0.34691632,0,,0.006737512,-0.0018183713,-0.0045604059,9.7175159,-0.35892299,0.76385897,0.73455602,-0.021035001,-0.67821997,0.00087300001,-0.38516566,-1.4852876,0.356625
2417917604864,0.34892941,0,,0.0053657354,-0.0025747621,-0.0073298417,9.7913675,-0.35735601,0.75599402,0.73455399,-0.021013999,-0.67822301,0.00087499997,-0.38488237,-1.485303,0.35637473
2417919589696,0.35091424,0,,0.0053657354,-0.0025747621,-0.0073298417,9.7913675,-0.35735601,0.75599402,0.73455399,-0.021013999,-0.67822301,0.00087499997,-0.38488237,-1.485303,0.35637473
2417921588864,0.35291341,0,,0.0053657354,-0.0025747621,-0.0073298417,9.7913675,-0.35735601,0.75599402,0.73455399,-0.021013999,-0.67822301,0.00087499997,-0.38488237,-1.485303,0.35637473
2417923688800,0.35501334,0,,0.0015864868,-0.0060890526,-0.0039453517,9.6989422,-0.261893,0.76944399,0.73454398,-0.021002,-0.67823398,0.000871,-0.38476559,-1.4853401,0.3562687
2417925590240,0.35691478,0,,0.0015864868,-0.0060890526,-0.0039453517,9.6989422,-0.261893,0.76944399,0.73454398,-0.021002,-0.67823398,0.000871,-0.38476559,-1.4853401,0.3562687
2417927598848,0.35892339,0,,0.0031330231,-0.0038597781,-0.0032177064,9.8404493,-0.208483,0.79936701,0.73453701,-0.020989001,-0.67824203,0.000864,-0.38453872,-1.48537,0.35605026
2417929587040,0.36091158,0,,0.0031330231,-0.0038597781,-0.0032177064,9.8404493,-0.208483,0.79936701,0.73453701,-0.020989001,-0.67824203,0.000864,-0.38453872,-1.48537,0.35605026
2417931579968,0.36290451,0,,0.0031330231,-0.0038597781,-0.0032177064,9.8404493,-0.208483,0.79936701,0.73453701,-0.020989001,-0.67824203,0.000864,-0.38453872,-1.48537,0.35605026
2417933746272,0.36507082,0,,0.0047696008,0.00076572832,0.0028574356,9.7456398,0.0091429995,0.86606503,0.73453701,-0.020981001,-0.67824298,0.00085700001,-0.38431945,-1.4853792,0.35583344
2417935598784,0.36692333,0,,0.0047696008,0.00076572832,0.0028574356,9.7456398,0.0091429995,0.86606503,0.73453701,-0.020981001,-0.67824298,0.00085700001,-0.38431945,-1.4853792,0.35583344
2417937581440,0.36890598,0,,0.0098728219,-0.00651315,0.0091980601,9.799736,-0.245637,0.76288402,0.73453701,-0.020973999,-0.67824298,0.00085800001,-0.38421884,-1.485382,0.35574339
2417939575008,0.37089955,0,,0.0098728219,-0.00651315,0.0091980601,9.799736,-0.245637,0.76288402,0.73453701,-0.020973999,-0.67824298,0.00085800001,-0.38421884,-1.485382,0.35574339
2417941575520,0.37290006,0,,0.0098728219,-0.00651315,0.0091980601,9.799736,-0.245637,0.76288402,0.73453701,-0.020973999,-0.67824298,0.00085800001,-0.38421884,-1.485382,0.35574339
2417943578720,0.37490326,0,,0.0023271347,-0.0036852628,0.0033419738,9.4886351,-0.80340803,0.66078901,0.73452902,-0.020972,-0.67825198,0.00087300001,-0.38450071,-1.4853973,0.35604916
2417945575136,0.37689968,0,,0.0023271347,-0.0036852628,0.0033419738,9.4886351,-0.80340803,0.66078901,0.73452902,-0.020972,-0.67825198,0.00087300001,-0.38450071,-1.4853973,0.35604916
2417947571584,0.37889613,0,,-4.3004911e-05,0.0015810239,0.0023021766,9.8385143,-0.42350599,0.75593603,0.73452502,-0.02098,-0.67825598,0.00091499998,-0.38531221,-1.4853805,0.35690946
2417949615776,0.38094032,0,,-4.3004911e-05,0.0015810239,0.0023021766,9.8385143,-0.42350599,0.75593603,0.73452502,-0.02098,-0.67825598,0.00091499998,-0.38531221,-1.4853805,0.35690946
2417951433344,0.38275789,0,,-4.3004911e-05,0.0015810239,0.0023021766,9.8385143,-0.42350599,0.75593603,0.73452502,-0.02098,-0.67825598,0.00091499998,-0.38531221,-1.4853805,0.35690946
2417953797856,0.3851224,0,,0.0029522594,0.0019193735,0.0029899234,9.8727713,-0.1786,0.87728202,0.73452801,-0.020984,-0.67825198,0.00092800002,-0.38551201,-1.4853632,0.35712165
2417955598048,0.38692259,0,,0.0029522594,0.0019193735,0.0029899234,9.8727713,-0.1786,0.87728202,0.73452801,-0.020984,-0.67825198,0.00092800002,-0.38551201,-1.4853632,0.35712165
2417957677792,0.38900234,0,,0.0053065862,-0.00024240878,0.0034438314,9.8810797,-0.14497399,0.87240201,0.73453599,-0.020982999,-0.67824399,0.00092899997,-0.3854206,-1.4853428,0.3570327
2417959610368,0.39093491,0,,0.0053065862,-0.00024240878,0.0034438314,9.8810797,-0.14497399,0.87240201,0.73453599,-0.020982999,-0.67824399,0.00092899997,-0.3854206,-1.4853428,0.3570327
2417961603392,0.39292794,0,,0.0053065862,-0.00024240878,0.0034438314,9.8810797,-0.14497399,0.87240201,0.73453599,-0.020982999,-0.67824399,0.00092899997,-0.3854206,-1.4853428,0.3570327
2417963642624,0.39496717,0,,0.0030448839,-0.005073777,0.0077423154,9.6945601,-0.43041101,0.737634,0.73453599,-0.020984,-0.67824399,0.000932,-0.38547263,-1.4853415,0.35708836
2417965609760,0.3969343,0,,0.0030448839,-0.005073777,0.0077423154,9.6945601,-0.43041101,0.737634,0.73453599,-0.020984,-0.67824399,0.000932,-0.38547263,-1.4853415,0.35708836
2417967603488,0.39892803,0,,-0.00022441443,-0.0025443932,0.0048754724,9.6821413,-0.494977,0.73148698,0.73452699,-0.020997001,-0.678253,0.00095199997,-0.38610533,-1.4853477,0.35773081
2417969601248,0.40092579,0,,-0.00022441443,-0.0025443932,0.0048754724,9.6821413,-0.494977,0.73148698,0.73452699,-0.020997001,-0.678253,0.00095199997,-0.38610533,-1.4853477,0.35773081
2417971599616,0.40292416,0,,-0.00022441443,-0.0025443932,0.0048754724,9.6821413,-0.494977,0.73148698,0.73452699,-0.020997001,-0.678253,0.00095199997,-0.38610533,-1.4853477,0.35773081
2417973758208,0.40508275,0,,0.0038308581,0.011669358,0.0036742671,9.7212124,-0.353535,0.78725702,0.73453403,-0.021001,-0.67824501,0.00097599998,-0.38642181,-1.4853142,0.35807549
2417975593600,0.40691814,0,,0.0038308581,0.011669358,0.0036742671,9.7212124,-0.353535,0.78725702,0.73453403,-0.021001,-0.67824501,0.00097599998,-0.38642181,-1.4853142,0.35807549
2417977585824,0.40891037,0,,-0.0035151456,0.0049752005,0.0060603768,9.8855476,-0.094094999,0.86940598,0.73455101,-0.021011,-0.67822599,0.00098400004,-0.38648133,-1.4852571,0.35813215
2417979586080,0.41091062,0,,-0.0035151456,0.0049752005,0.0060603768,9.8855476,-0.094094999,0.86940598,0.73455101,-0.021011,-0.67822599,0.00098400004,-0.38648133,-1.4852571,0.35813215
2417981596768,0.41292131,0,,-0.0035151456,0.0049752005,0.0060603768,9.8855476,-0.094094999,0.86940598,0.73455101,-0.021011,-0.67822599,0.00098400004,-0.38648133,-1.4852571,0.35813215
2417983615648,0.41494019,0,,-0.0012148888,-0.00090901984,0.0098948304,9.7662115,-0.26453,0.83171999,0.73455697,-0.021028999,-0.67821902,0.00097200001,-0.38651622,-1.4852373,0.35812413
2417985585248,0.41690979,0,,-0.0012148888,-0.00090901984,0.0098948304,9.7662115,-0.26453,0.83171999,0.73455697,-0.021028999,-0.67821902,0.00097200001,-0.38651622,-1.4852373,0.35812413
2417987602208,0.41892675,0,,0.0021843843,-0.0014405773,0.0090152185,9.770895,-0.42852399,0.75793201,0.73455799,-0.021044999,-0.67821801,0.00098699995,-0.38697981,-1.4852184,0.35858572
2417989600672,0.42092522,0,,0.0021843843,-0.0014405773,0.0090152185,9.770895,-0.42852399,0.75793201,0.73455799,-0.021044999,-0.67821801,0.00098699995,-0.38697981,-1.4852184,0.35858572
2417991632576,0.42295712,0,,0.0021843843,-0.0014405773,0.0090152185,9.770895,-0.42852399,0.75793201,0.73455799,-0.021044999,-0.67821801,0.00098699995,-0.38697981,-1.4852184,0.35858572
2417993777344,0.42510189,0,,-0.0022906923,0.00082150899,0.0080459855,9.749999,-0.41211998,0.74271202,0.73455799,-0.021060999,-0.67821801,0.001009,-0.38756244,-1.4851983,0.35917724
2417995592096,0.42691664,0,,-0.0022906923,0.00082150899,0.0080459855,9.749999,-0.41211998,0.74271202,0.73455799,-0.021060999,-0.67821801,0.001009,-0.38756244,-1.4851983,0.35917724
2417997585568,0.42891011,0,,-0.0048068461,6.7334803e-05,0.0056750954,9.8397827,-0.33120501,0.76985502,0.73455697,-0.021082001,-0.67821801,0.001019,-0.38805696,-1.4851838,0.35965688
2417999584064,0.43090861,0,,-0.0048068461,6.7334803e-05,0.0056750954,9.8397827,-0.33120501,0.76985502,0.73455697,-0.021082001,-0.67821801,0.001019,-0.38805696,-1.4851838,0.35965688
2418001582784,0.43290733,0,,-0.0048068461,6.7334803e-05,0.0056750954,9.8397827,-0.33120501,0.76985502,0.73455697,-0.021082001,-0.67821801,0.001019,-0.38805696,-1.4851838,0.35965688
2418003612832,0.43493738,0,,0.0010336189,0.001308613,0.0047483252,9.7995348,-0.22894999,0.80923802,0.73456001,-0.021091999,-0.67821401,0.001025,-0.38825703,-1.4851657,0.35985202
2418005581568,0.43690611,0,,0.0010336189,0.001308613,0.0047483252,9.7995348,-0.22894999,0.80923802,0.73456001,-0.021091999,-0.67821401,0.001025,-0.38825703,-1.4851657,0.35985202
2418007632192,0.43895674,0,,0.0010336189,0.001308613,0.0047483252,9.7995348,-0.22894999,0.80923802,0.73456001,-0.021091999,-0.67821401,0.001025,-0.38825703,-1.4851657,0.35985202
2418009611840,0.44093638,0,,0.0010336189,0.001308613,0.0047483252,9.7995348,-0.22894999,0.80923802,0.73456001,-0.021091999,-0.67821401,0.001025,-0.38825703,-1.4851657,0.35985202
2418011610784,0.44293533,0,,0.0010336189,0.001308613,0.0047483252,9.7995348,-0.22894999,0.80923802,0.73456001,-0.021091999,-0.67821401,0.001025,-0.38825703,-1.4851657,0.35985202
2418013763616,0.44508816,0,,0.005161305,0.00036674602,0.0082130484,9.7133694,-0.44185001,0.75282902,0.73456299,-0.021114999,-0.67821002,0.001051,-0.38896373,-1.4851307,0.36056149
2418015608416,0.44693296,0,,0.005161305,0.00036674602,0.0082130484,9.7133694,-0.44185001,0.75282902,0.73456299,-0.021114999,-0.67821002,0.001051,-0.38896373,-1.4851307,0.36056149
2418017606944,0.44893149,0,,0.007913759,0.0088460089,0.0069463579,9.7257452,-0.41358599,0.743007,0.73457098,-0.021119,-0.67820102,0.001082,-0.38938484,-1.4850917,0.36102221
2418019603936,0.45092848,0,,0.007913759,0.0088460089,0.0069463579,9.7257452,-0.41358599,0.743007,0.73457098,-0.021119,-0.67820102,0.001082,-0.38938484,-1.4850917,0.36102221
2418021600928,0.45292547,0,,0.007913759,0.0088460089,0.0069463579,9.7257452,-0.41358599,0.743007,0.73457098,-0.021119,-0.67820102,0.001082,-0.38938484,-1.4850917,0.36102221
2418023684000,0.45500854,0,,0.011919028,0.0089449173,0.0063337997,9.8032837,-0.228733,0.81007802,0.73458701,-0.021111,-0.67818397,0.001118,-0.38957553,-1.4850334,0.36127415
2418025593312,0.45691786,0,,0.011919028,0.0089449173,0.0063337997,9.8032837,-0.228733,0.81007802,0.73458701,-0.021111,-0.67818397,0.001118,-0.38957553,-1.4850334,0.36127415
2418027595584,0.45892013,0,,0.010035625,0.0038633386,0.007695296,9.8292437,-0.272645,0.81380397,0.73460197,-0.0211,-0.67816901,0.001141,-0.38956874,-1.4849867,0.36131459
2418029590944,0.46091549,0,,0.010035625,0.0038633386,0.007695296,9.8292437,-0.272645,0.81380397,0.73460197,-0.0211,-0.67816901,0.001141,-0.38956874,-1.4849867,0.36131459
2418031588864,0.46291341,0,,0.010035625,0.0038633386,0.007695296,9.8292437,-0.272645,0.81380397,0.73460197,-0.0211,-0.67816901,0.001141,-0.38956874,-1.4849867,0.36131459
2418033752992,0.46507754,0,,-0.0018325434,0.0013827546,0.011729241,9.7740879,-0.413165,0.75184101,0.73460698,-0.02111,-0.67816198,0.001158,-0.38989857,-1.4849555,0.36165618
2418035603904,0.46692845,0,,-0.0018325434,0.0013827546,0.011729241,9.7740879,-0.413165,0.75184101,0.73460698,-0.02111,-0.67816198,0.001158,-0.38989857,-1.4849555,0.36165618
2418037600224,0.46892477,0,,-0.0032409716,0.0055136522,0.0080760396,9.8245411,-0.34983,0.78061903,0.734613,-0.021133,-0.678155,0.001178,-0.39049668,-1.4849178,0.3622494
2418039609696,0.47093424,0,,-0.0032409716,0.0055136522,0.0080760396,9.8245411,-0.34983,0.78061903,0.734613,-0.021133,-0.678155,0.001178,-0.39049668,-1.4849178,0.3622494
2418041586464,0.47291101,0,,-0.0032409716,0.0055136522,0.0080760396,9.8245411,-0.34983,0.78061903,0.734613,-0.021133,-0.678155,0.001178,-0.39049668,-1.4849178,0.3622494
2418043640544,0.47496509,0,,0.0025403441,0.0049102917,0.0099035918,9.858489,-0.30103499,0.80243999,0.73462301,-0.02115,-0.67814398,0.001194,-0.3908654,-1.484872,0.36261645
2418045590240,0.47691478,0,,0.0025403441,0.0049102917,0.0099035918,9.858489,-0.30103499,0.80243999,0.73462301,-0.02115,-0.67814398,0.001194,-0.3908654,-1.484872,0.36261645
2418047583104,0.47890765,0,,0.0023434535,-0.00094682366,0.010788072,9.8006287,-0.36575499,0.78659302,0.73462898,-0.021159999,-0.678137,0.001214,-0.39124024,-1.4848408,0.36300517
2418049580096,0.48090464,0,,0.0023434535,-0.00094682366,0.010788072,9.8006287,-0.36575499,0.78659302,0.73462898,-0.021159999,-0.678137,0.001214,-0.39124024,-1.4848408,0.36300517
2418051576192,0.48290074,0,,0.0023434535,-0.00094682366,0.010788072,9.8006287,-0.36575499,0.78659302,0.73462898,-0.021159999,-0.678137,0.001214,-0.39124024,-1.4848408,0.36300517
2418053918656,0.4852432,0,,-0.0018776426,-0.0018250734,0.0084633631,9.7363291,-0.28261399,0.78629297,0.734626,-0.02118,-0.67813897,0.0012300001,-0.39182713,-1.484829,0.36358657
2418055575968,0.48690051,0,,-0.0018776426,-0.0018250734,0.0084633631,9.7363291,-0.28261399,0.78629297,0.734626,-0.02118,-0.67813897,0.0012300001,-0.39182713,-1.484829,0.36358657
2418057591328,0.48891587,0,,0.00063636449,-0.0016061218,0.0093072476,9.855052,-0.33690801,0.821226,0.734626,-0.021194,-0.67813897,0.001244,-0.39224575,-1.4848143,0.36400495
2418059579488,0.49090403,0,,0.00063636449,-0.0016061218,0.0093072476,9.855052,-0.33690801,0.821226,0.734626,-0.021194,-0.67813897,0.001244,-0.39224575,-1.4848143,0.36400495
2418061573568,0.49289811,0,,0.00063636449,-0.0016061218,0.0093072476,9.855052,-0.33690801,0.821226,0.734626,-0.021194,-0.67813897,0.001244,-0.39224575,-1.4848143,0.36400495
2418063618560,0.4949431,0,,-0.0055093412,0.00051000266,0.005883016,9.7990227,-0.35459301,0.79449701,0.73462701,-0.021213999,-0.678137,0.00125,-0.39263929,-1.484797,0.36437936
2418065598912,0.49692346,0,,-0.0055093412,0.00051000266,0.005883016,9.7990227,-0.35459301,0.79449701,0.73462701,-0.021213999,-0.678137,0.00125,-0.39263929,-1.484797,0.36437936
2418067597856,0.4989224,0,,0.0055467435,0.0010015397,0.011277759,9.7692575,-0.355802,0.78407502,0.73462999,-0.021229999,-0.67813301,0.001264,-0.39304469,-1.4847708,0.3647816
2418069594752,0.5009193,0,,0.0055467435,0.0010015397,0.011277759,9.7692575,-0.355802,0.78407502,0.73462999,-0.021229999,-0.67813301,0.001264,-0.39304469,-1.4847708,0.3647816
2418071592608,0.50291715,0,,0.0055467435,0.0010015397,0.011277759,9.7692575,-0.355802,0.78407502,0.73462999,-0.021229999,-0.67813301,0.001264,-0.39304469,-1.4847708,0.3647816
2418073660384,0.50498493,0,,0.0075513418,0.0021931108,0.01217985,9.680212,-0.363296,0.783149,0.734635,-0.021237999,-0.678128,0.001297,-0.39361621,-1.4847373,0.36538843
2418075590528,0.50691507,0,,0.0075513418,0.0021931108,0.01217985,9.680212,-0.363296,0.783149,0.734635,-0.021237999,-0.678128,0.001297,-0.39361621,-1.4847373,0.36538843
2418077590976,0.50891552,0,,0.0024203877,-0.00043085197,0.01379503,9.7700644,-0.25189099,0.83127898,0.73463899,-0.021252999,-0.678123,0.00133,-0.39427108,-1.4846999,0.36606973
2418079601280,0.51092582,0,,0.0024203877,-0.00043085197,0.01379503,9.7700644,-0.25189099,0.83127898,0.73463899,-0.021252999,-0.678123,0.00133,-0.39427108,-1.4846999,0.36606973
2418081594144,0.51291869,0,,0.0024203877,-0.00043085197,0.01379503,9.7700644,-0.25189099,0.83127898,0.73463899,-0.021252999,-0.678123,0.00133,-0.39427108,-1.4846999,0.36606973
2418083648416,0.51497296,0,,0.0012378225,0.0019222009,0.017284746,9.7371616,-0.27331799,0.795295,0.73464197,-0.021279,-0.678119,0.001351,-0.39495045,-1.4846652,0.36674095
2418085606464,0.51693101,0,,0.0012378225,0.0019222009,0.017284746,9.7371616,-0.27331799,0.795295,0.73464197,-0.021279,-0.678119,0.001351,-0.39495045,-1.4846652,0.36674095
2418087601248,0.51892579,0,,0.0072027293,0.0019880172,0.012080104,9.7447195,-0.46256799,0.77585697,0.73464799,-0.021295,-0.67811102,0.001381,-0.39554793,-1.484623,0.3673588
2418089596832,0.52092138,0,,0.0072027293,0.0019880172,0.012080104,9.7447195,-0.46256799,0.77585697,0.73464799,-0.021295,-0.67811102,0.001381,-0.39554793,-1.484623,0.3673588
2418091595040,0.52291958,0,,0.0072027293,0.0019880172,0.012080104,9.7447195,-0.46256799,0.77585697,0.73464799,-0.021295,-0.67811102,0.001381,-0.39554793,-1.484623,0.3673588
2418093788544,0.52511309,0,,0.0064846662,0.0028736845,0.011814343,9.7337751,-0.39069799,0.77452803,0.73465401,-0.021303,-0.678105,0.001421,-0.39619065,-1.4845821,0.36804557
2418095585760,0.5269103,0,,0.0064846662,0.0028736845,0.011814343,9.7337751,-0.39069799,0.77452803,0.73465401,-0.021303,-0.678105,0.001421,-0.39619065,-1.4845821,0.36804557
2418097579008,0.52890355,0,,0.0026859394,0.0041665548,0.010782609,9.8451586,-0.231986,0.81331098,0.73466301,-0.021314001,-0.67809498,0.00145,-0.39667372,-1.4845372,0.36855556
2418099577248,0.53090179,0,,0.0026859394,0.0041665548,0.010782609,9.8451586,-0.231986,0.81331098,0.73466301,-0.021314001,-0.67809498,0.00145,-0.39667372,-1.4845372,0.36855556
2418101574944,0.53289949,0,,0.0026859394,0.0041665548,0.010782609,9.8451586,-0.231986,0.81331098,0.73466301,-0.021314001,-0.67809498,0.00145,-0.39667372,-1.4845372,0.36855556
2418103574560,0.5348991,0,,0.0038803906,0.00091456996,0.012541325,9.8529711,-0.246039,0.81854498,0.73466897,-0.021328,-0.678087,0.001466,-0.3970429,-1.4845013,0.36892727
2418105573216,0.53689776,0,,0.0038803906,0.00091456996,0.012541325,9.8529711,-0.246039,0.81854498,0.73466897,-0.021328,-0.678087,0.001466,-0.3970429,-1.4845013,0.36892727
2418107572416,0.53889696,0,,0.0032391217,0.0018864741,0.010046935,9.8550634,-0.416412,0.78628498,0.73467398,-0.021338999,-0.67808199,0.001485,-0.39743238,-1.4844729,0.36932761
2418109580160,0.5409047,0,,0.0032391217,0.0018864741,0.010046935,9.8550634,-0.416412,0.78628498,0.73467398,-0.021338999,-0.67808199,0.001485,-0.39743238,-1.4844729,0.36932761
2418111576384,0.54290093,0,,0.0032391217,0.0018864741,0.010046935,9.8550634,-0.416412,0.78628498,0.73467398,-0.021338999,-0.67808199,0.001485,-0.39743238,-1.4844729,0.36932761
2418113763136,0.54508768,0,,0.0030228405,-0.0006537305,0.015462831,9.7850685,-0.43691301,0.73653698,0.734676,-0.021358,-0.67807901,0.001518,-0.39816891,-1.4844369,0.37008498
2418115567360,0.5468919,0,,0.0030228405,-0.0006537305,0.015462831,9.7850685,-0.43691301,0.73653698,0.734676,-0.021358,-0.67807901,0.001518,-0.39816891,-1.4844369,0.37008498
2418117568416,0.54889296,0,,0.0039192938,0.0028476443,0.005164377,9.865263,-0.332104,0.80008197,0.73467702,-0.021369999,-0.678078,0.0015510001,-0.39882425,-1.4844127,0.37076838
2418119567424,0.55089197,0,,0.0039192938,0.0028476443,0.005164377,9.865263,-0.332104,0.80008197,0.73467702,-0.021369999,-0.678078,0.0015510001,-0.39882425,-1.4844127,0.37076838
2418121595360,0.5529199,0,,0.0039192938,0.0028476443,0.005164377,9.865263,-0.332104,0.80008197,0.73467702,-0.021369999,-0.678078,0.0015510001,-0.39882425,-1.4844127,0.37076838
2418123768288,0.55509283,0,,-0.00090786791,0.00045364599,0.0019507022,9.8379335,-0.330439,0.81018597,0.73468202,-0.021374,-0.67807299,0.001555,-0.39889126,-1.4843947,0.37083623
2418125624320,0.55694886,0,,-0.00090786791,0.00045364599,0.0019507022,9.8379335,-0.330439,0.81018597,0.73468202,-0.021374,-0.67807299,0.001555,-0.39889126,-1.4843947,0.37083623
2418127614112,0.55893866,0,,0.0013264677,0.0013402907,0.0064385196,9.7521687,-0.220092,0.78128397,0.734685,-0.02138,-0.67806798,0.00156,-0.39900991,-1.4843781,0.37095337
2418129603808,0.56092835,0,,0.0013264677,0.0013402907,0.0064385196,9.7521687,-0.220092,0.78128397,0.734685,-0.02138,-0.67806798,0.00156,-0.39900991,-1.4843781,0.37095337
2418131594848,0.56291939,0,,0.0013264677,0.0013402907,0.0064385196,9.7521687,-0.220092,0.78128397,0.734685,-0.02138,-0.67806798,0.00156,-0.39900991,-1.4843781,0.37095337
2418133759360,0.5650839,0,,0.0034443026,0.00057222366,0.009011746,9.7857399,-0.33071199,0.785748,0.734689,-0.021388,-0.678065,0.001569,-0.39923301,-1.484361,0.37117791
2418135592320,0.56691686,0,,0.0034443026,0.00057222366,0.009011746,9.7857399,-0.33071199,0.785748,0.734689,-0.021388,-0.678065,0.001569,-0.39923301,-1.484361,0.37117791
2418137597600,0.56892214,0,,0.0039362933,-0.0019677017,0.0037455291,9.7830858,-0.46332401,0.78314799,0.734689,-0.021392001,-0.67806399,0.001585,-0.39951674,-1.4843484,0.37147795
2418139593344,0.57091789,0,,0.0039362933,-0.0019677017,0.0037455291,9.7830858,-0.46332401,0.78314799,0.734689,-0.021392001,-0.67806399,0.001585,-0.39951674,-1.4843484,0.37147795
2418141586688,0.57291123,0,,0.0039362933,-0.0019677017,0.0037455291,9.7830858,-0.46332401,0.78314799,0.734689,-0.021392001,-0.67806399,0.001585,-0.39951674,-1.4843484,0.37147795
2418143584224,0.57490877,0,,0.0093989467,-0.00082388269,0.0022428004,9.7729225,-0.30731601,0.75234801,0.73468697,-0.021388,-0.67806602,0.00161,-0.39984108,-1.4843409,0.37184357
2418145585376,0.57690992,0,,0.0093989467,-0.00082388269,0.0022428004,9.7729225,-0.30731601,0.75234801,0.73468697,-0.021388,-0.67806602,0.00161,-0.39984108,-1.4843409,0.37184357
2418147615808,0.57894035,0,,-0.0023846433,-0.0010598861,0.0061515349,9.7966585,-0.262041,0.81905502,0.734685,-0.021385999,-0.67806798,0.001622,-0.39999598,-1.4843437,0.3720192
2418149582656,0.5809072,0,,-0.0023846433,-0.0010598861,0.0061515349,9.7966585,-0.262041,0.81905502,0.734685,-0.021385999,-0.67806798,0.001622,-0.39999598,-1.4843437,0.3720192
2418151580576,0.58290512,0,,-0.0023846433,-0.0010598861,0.0061515349,9.7966585,-0.262041,0.81905502,0.734685,-0.021385999,-0.67806798,0.001622,-0.39999598,-1.4843437,0.3720192
2418153780032,0.58510458,0,,-0.0051570289,-0.0023254941,0.0043360785,9.7128534,-0.35102299,0.82105398,0.73468399,-0.021403,-0.678069,0.001615,-0.40018623,-1.4843409,0.3721752
2418155585024,0.58690957,0,,-0.0051570289,-0.0023254941,0.0043360785,9.7128534,-0.35102299,0.82105398,0.73468399,-0.021403,-0.678069,0.001615,-0.40018623,-1.4843409,0.3721752
2418157632800,0.58895734,0,,-0.0016715541,-0.00024270549,0.010297111,9.7290277,-0.30226901,0.74769998,0.73468399,-0.02142,-0.67806798,0.001621,-0.40053277,-1.4843264,0.37250496
2418159588832,0.59091338,0,,-0.0016715541,-0.00024270549,0.010297111,9.7290277,-0.30226901,0.74769998,0.73468399,-0.02142,-0.67806798,0.001621,-0.40053277,-1.4843264,0.37250496
2418161609632,0.59293418,0,,-0.0016715541,-0.00024270549,0.010297111,9.7290277,-0.30226901,0.74769998,0.73468399,-0.02142,-0.67806798,0.001621,-0.40053277,-1.4843264,0.37250496
2418163579968,0.59490451,0,,-0.0039247918,5.1696652e-05,0.018102292,9.6768856,-0.28318301,0.81394398,0.73468399,-0.021447999,-0.67806697,0.001637,-0.40120275,-1.484301,0.37315804
2418165585792,0.59691034,0,,-0.0039247918,5.1696652e-05,0.018102292,9.6768856,-0.28318301,0.81394398,0.73468399,-0.021447999,-0.67806697,0.001637,-0.40120275,-1.484301,0.37315804
2418167576928,0.59890147,0,,0.00038109263,0.0012592026,0.0110039,9.773387,-0.42013898,0.81841099,0.73468697,-0.021481,-0.67806298,0.001657,-0.40196479,-1.4842637,0.37390269
2418169576800,0.60090134,0,,0.00038109263,0.0012592026,0.0110039,9.773387,-0.42013898,0.81841099,0.73468697,-0.021481,-0.67806298,0.001657,-0.40196479,-1.4842637,0.37390269
2418171573728,0.60289827,0,,0.00038109263,0.0012592026,0.0110039,9.773387,-0.42013898,0.81841099,0.73468697,-0.021481,-0.67806298,0.001657,-0.40196479,-1.4842637,0.37390269
2418173763808,0.60508835,0,,0.0043042088,-0.0022829257,0.006146142,9.8357286,-0.436562,0.780038,0.734689,-0.02149,-0.67806,0.001678,-0.40237724,-1.4842415,0.37433269
2418175608416,0.60693296,0,,0.0043042088,-0.0022829257,0.006146142,9.8357286,-0.436562,0.780038,0.734689,-0.02149,-0.67806,0.001678,-0.40237724,-1.4842415,0.37433269
2418177607232,0.60893178,0,,0.0018897203,-0.0023069589,0.0069669355,9.84268,-0.35785201,0.80483401,0.734685,-0.021498,-0.678065,0.001702,-0.40291124,-1.484234,0.37488709
2418179600032,0.61092458,0,,0.0018897203,-0.0023069589,0.0069669355,9.84268,-0.35785201,0.80483401,0.734685,-0.021498,-0.678065,0.001702,-0.40291124,-1.484234,0.37488709
2418181601280,0.61292582,0,,0.0018897203,-0.0023069589,0.0069669355,9.84268,-0.35785201,0.80483401,0.734685,-0.021498,-0.678065,0.001702,-0.40291124,-1.484234,0.37488709
2418183597600,0.61492214,0,,0.0090346616,0.005433594,0.0062021495,9.8789167,-0.28904599,0.83517098,0.73469001,-0.021503,-0.67805898,0.0017209999,-0.40319047,-1.4842064,0.37518813
2418185598304,0.61692285,0,,0.0090346616,0.005433594,0.0062021495,9.8789167,-0.28904599,0.83517098,0.73469001,-0.021503,-0.67805898,0.0017209999,-0.40319047,-1.4842064,0.37518813
2418187594624,0.61891917,0,,0.0072336043,0.0032320183,0.0037736114,9.8259344,-0.34176999,0.753411,0.73470199,-0.021493999,-0.67804599,0.001739,-0.40315558,-1.4841706,0.37519169
2418189634592,0.62095914,0,,0.0072336043,0.0032320183,0.0037736114,9.8259344,-0.34176999,0.753411,0.73470199,-0.021493999,-0.67804599,0.001739,-0.40315558,-1.4841706,0.37519169
2418191616256,0.6229408,0,,0.0072336043,0.0032320183,0.0037736114,9.8259344,-0.34176999,0.753411,0.73470199,-0.021493999,-0.67804599,0.001739,-0.40315558,-1.4841706,0.37519169
2418193641472,0.62496602,0,,-0.0024062854,-0.0016541882,0.0022301992,9.7919617,-0.44815999,0.76837999,0.734703,-0.021492999,-0.67804497,0.001749,-0.4032671,-1.4841645,0.37531799
2418195596960,0.6269215,0,,-0.0024062854,-0.0016541882,0.0022301992,9.7919617,-0.44815999,0.76837999,0.734703,-0.021492999,-0.67804497,0.001749,-0.4032671,-1.4841645,0.37531799
2418197589056,0.6289136,0,,0.00059267889,-0.0017545969,0.00040448004,9.8566647,-0.243595,0.844293,0.73470002,-0.021497,-0.67804801,0.001755,-0.40346744,-1.4841636,0.37552089
2418199587232,0.63091178,0,,0.00059267889,-0.0017545969,0.00040448004,9.8566647,-0.243595,0.844293,0.73470002,-0.021497,-0.67804801,0.001755,-0.40346744,-1.4841636,0.37552089
2418201587264,0.63291181,0,,0.00059267889,-0.0017545969,0.00040448004,9.8566647,-0.243595,0.844293,0.73470002,-0.021497,-0.67804801,0.001755,-0.40346744,-1.4841636,0.37552089
2418203588032,0.63491258,0,,0.00093743381,-0.0046321386,0.0053160633,9.8765993,-0.23034699,0.80539203,0.73469901,-0.021499,-0.67804903,0.001755,-0.40350536,-1.4841684,0.37555532
2418205588384,0.63691293,0,,0.00093743381,-0.0046321386,0.0053160633,9.8765993,-0.23034699,0.80539203,0.73469901,-0.021499,-0.67804903,0.001755,-0.40350536,-1.4841684,0.37555532
2418207585024,0.63890957,0,,0.0010646334,-0.000947068,0.0039417913,9.7276793,-0.40589401,0.77375698,0.73469597,-0.021504,-0.67805201,0.001755,-0.40360905,-1.4841742,0.37565285
2418209583680,0.64090822,0,,0.0010646334,-0.000947068,0.0039417913,9.7276793,-0.40589401,0.77375698,0.73469597,-0.021504,-0.67805201,0.001755,-0.40360905,-1.4841742,0.37565285
2418211581056,0.6429056,0,,0.0010646334,-0.000947068,0.0039417913,9.7276793,-0.40589401,0.77375698,0.73469597,-0.021504,-0.67805201,0.001755,-0.40360905,-1.4841742,0.37565285
2418213738560,0.6450631,0,,-0.0033477334,-0.00040107668,0.0034085058,9.7684288,-0.43158099,0.73617798,0.73469502,-0.021514,-0.67805302,0.001763,-0.40389901,-1.4841657,0.37593908
2418215579904,0.64690445,0,,-0.0033477334,-0.00040107668,0.0034085058,9.7684288,-0.43158099,0.73617798,0.73469502,-0.021514,-0.67805302,0.001763,-0.40389901,-1.4841657,0.37593908
2418217612256,0.6489368,0,,-0.0011718839,0.0008536231,0.0020120156,9.6601973,-0.397585,0.76038498,0.734694,-0.021523001,-0.67805398,0.001769,-0.4041536,-1.4841589,0.37619005
2418219576864,0.65090141,0,,-0.0011718839,0.0008536231,0.0020120156,9.6601973,-0.397585,0.76038498,0.734694,-0.021523001,-0.67805398,0.001769,-0.4041536,-1.4841589,0.37619005
2418221575872,0.65290042,0,,-0.0011718839,0.0008536231,0.0020120156,9.6601973,-0.397585,0.76038498,0.734694,-0.021523001,-0.67805398,0.001769,-0.4041536,-1.4841589,0.37619005
2418223629824,0.65495437,0,,-0.001564583,0.0049360354,0.005105245,9.810607,-0.18189099,0.77798098,0.73469901,-0.021531001,-0.67804801,0.001776,-0.40431123,-1.4841376,0.37634644
2418225570240,0.65689478,0,,-0.001564583,0.0049360354,0.005105245,9.810607,-0.18189099,0.77798098,0.73469901,-0.021531001,-0.67804801,0.001776,-0.40431123,-1.4841376,0.37634644
2418227573024,0.65889757,0,,-0.00093462384,0.0032422457,0.004626833,9.784646,-0.31709701,0.81680799,0.73470902,-0.021539999,-0.67803699,0.001773,-0.4042794,-1.4841067,0.37629641
2418229566176,0.66089072,0,,-0.00093462384,0.0032422457,0.004626833,9.784646,-0.31709701,0.81680799,0.73470902,-0.021539999,-0.67803699,0.001773,-0.4042794,-1.4841067,0.37629641
2418231564928,0.66288947,0,,-0.00093462384,0.0032422457,0.004626833,9.784646,-0.31709701,0.81680799,0.73470902,-0.021539999,-0.67803699,0.001773,-0.4042794,-1.4841067,0.37629641
2418233759456,0.665084,0,,-0.0011179881,0.00011201523,0.0019608076,9.7759066,-0.33261499,0.79435897,0.73471397,-0.02155,-0.67803103,0.001772,-0.40435644,-1.4840874,0.37635952
2418235561280,0.66688582,0,,-0.0011179881,0.00011201523,0.0019608076,9.7759066,-0.33261499,0.79435897,0.73471397,-0.02155,-0.67803103,0.001772,-0.40435644,-1.4840874,0.37635952
2418237608576,0.66893312,0,,0.0020371134,0.00096022776,-0.00093750357,9.9108248,-0.42167899,0.75595802,0.73471701,-0.021548999,-0.67802799,0.001773,-0.40431373,-1.4840811,0.37631851
2418239593504,0.67091805,0,,0.0020371134,0.00096022776,-0.00093750357,9.9108248,-0.42167899,0.75595802,0.73471701,-0.021548999,-0.67802799,0.001773,-0.40431373,-1.4840811,0.37631851
2418241589408,0.67291395,0,,0.0020371134,0.00096022776,-0.00093750357,9.9108248,-0.42167899,0.75595802,0.73471701,-0.021548999,-0.67802799,0.001773,-0.40431373,-1.4840811,0.37631851
2418243588384,0.67491293,0,,0.0022165157,0.00088779661,-0.0044589322,9.8337536,-0.39080599,0.82067198,0.73471701,-0.021539001,-0.67802799,0.001775,-0.40417504,-1.4840838,0.3761971
2418245639616,0.67696416,0,,0.0022165157,0.00088779661,-0.0044589322,9.8337536,-0.39080599,0.82067198,0.73471701,-0.021539001,-0.67802799,0.001775,-0.40417504,-1.4840838,0.3761971
2418247592928,0.67891747,0,,0.0032271835,0.0039307433,0.0019990304,9.865859,-0.14204299,0.79891497,0.73472399,-0.021536,-0.67802101,0.001777,-0.40406738,-1.4840645,0.37609783
2418249616768,0.68094131,0,,0.0032271835,0.0039307433,0.0019990304,9.865859,-0.14204299,0.79891497,0.73472399,-0.021536,-0.67802101,0.001777,-0.40406738,-1.4840645,0.37609783
2418251581152,0.6829057,0,,0.0032271835,0.0039307433,0.0019990304,9.865859,-0.14204299,0.79891497,0.73472399,-0.021536,-0.67802101,0.001777,-0.40406738,-1.4840645,0.37609783
2418253790368,0.68511491,0,,-0.00016907004,-0.00046638687,0.0023451641,9.7689075,-0.46296701,0.81998402,0.73473001,-0.021532999,-0.67801499,0.001769,-0.40383802,-1.4840564,0.37586041
2418255581984,0.68690653,0,,-0.00016907004,-0.00046638687,0.0023451641,9.7689075,-0.46296701,0.81998402,0.73473001,-0.021532999,-0.67801499,0.001769,-0.40383802,-1.4840564,0.37586041
2418257607136,0.68893168,0,,-0.0055650345,-0.0022755429,-0.00035915387,9.7564163,-0.48876801,0.79318202,0.73473001,-0.021543,-0.67801499,0.00177,-0.40400756,-1.4840501,0.37601647
2418259584064,0.69090861,0,,-0.0055650345,-0.0022755429,-0.00035915387,9.7564163,-0.48876801,0.79318202,0.73473001,-0.021543,-0.67801499,0.00177,-0.40400756,-1.4840501,0.37601647
2418261588832,0.69291338,0,,-0.0055650345,-0.0022755429,-0.00035915387,9.7564163,-0.48876801,0.79318202,0.73473001,-0.021543,-0.67801499,0.00177,-0.40400756,-1.4840501,0.37601647
2418263575776,0.69490032,0,,0.0015086975,-0.0037562626,-0.0025395413,9.8931122,-0.30779201,0.80184299,0.734725,-0.021547001,-0.67801899,0.001771,-0.40415717,-1.4840577,0.37616235
2418265594848,0.69691939,0,,0.0015086975,-0.0037562626,-0.0025395413,9.8931122,-0.30779201,0.80184299,0.734725,-0.021547001,-0.67801899,0.001771,-0.40415717,-1.4840577,0.37616235
2418267572064,0.69889661,0,,-0.0007246607,-0.0044808887,-0.0047859195,9.7054234,-0.39890099,0.84274697,0.73471999,-0.021539001,-0.67802501,0.001762,-0.40395886,-1.4840818,0.37596218
2418269573248,0.70089779,0,,-0.0007246607,-0.0044808887,-0.0047859195,9.7054234,-0.39890099,0.84274697,0.73471999,-0.021539001,-0.67802501,0.001762,-0.40395886,-1.4840818,0.37596218
2418271571776,0.70289632,0,,-0.0007246607,-0.0044808887,-0.0047859195,9.7054234,-0.39890099,0.84274697,0.73471999,-0.021539001,-0.67802501,0.001762,-0.40395886,-1.4840818,0.37596218
2418273766272,0.70509082,0,,5.0771628e-05,-0.0019940736,0.0027742706,9.6998129,-0.212889,0.817738,0.73471802,-0.021542,-0.67802799,0.00176,-0.40399931,-1.4840881,0.37599617
2418275569152,0.7068937,0,,5.0771628e-05,-0.0019940736,0.0027742706,9.6998129,-0.212889,0.817738,0.73471802,-0.021542,-0.67802799,0.00176,-0.40399931,-1.4840881,0.37599617
2418277565056,0.7088896,0,,0.0064137881,-0.0012934111,0.011212938,9.5922699,-0.25446099,0.76813799,0.73471802,-0.021547001,-0.67802697,0.001767,-0.40418563,-1.4840805,0.37618479
2418279564384,0.71088893,0,,0.0064137881,-0.0012934111,0.011212938,9.5922699,-0.25446099,0.76813799,0.73471802,-0.021547001,-0.67802697,0.001767,-0.40418563,-1.4840805,0.37618479
2418281581856,0.7129064,0,,0.0064137881,-0.0012934111,0.011212938,9.5922699,-0.25446099,0.76813799,0.73471802,-0.021547001,-0.67802697,0.001767,-0.40418563,-1.4840805,0.37618479
2418283564000,0.71488854,0,,0.00014021976,-0.0033214662,0.0081278761,9.7332315,-0.49259099,0.82718599,0.734716,-0.021558,-0.678029,0.001785,-0.40464103,-1.4840701,0.37665154
2418285619968,0.71694451,0,,0.00014021976,-0.0033214662,0.0081278761,9.7332315,-0.49259099,0.82718599,0.734716,-0.021558,-0.678029,0.001785,-0.40464103,-1.4840701,0.37665154
2418287564480,0.71888902,0,,-0.0068192107,-0.0062663078,0.00093858568,9.8493814,-0.50244898,0.77546102,0.73470902,-0.021576,-0.67803597,0.001793,-0.40512143,-1.484075,0.37711559
2418289628736,0.72095328,0,,-0.0068192107,-0.0062663078,0.00093858568,9.8493814,-0.50244898,0.77546102,0.73470902,-0.021576,-0.67803597,0.001793,-0.40512143,-1.484075,0.37711559
2418291609184,0.72293373,0,,-0.0068192107,-0.0062663078,0.00093858568,9.8493814,-0.50244898,0.77546102,0.73470902,-0.021576,-0.67803597,0.001793,-0.40512143,-1.484075,0.37711559
2418293633632,0.72495818,0,,0.0010583851,-0.002893337,0.00091186473,9.8514433,-0.36399201,0.80846101,0.734703,-0.021585001,-0.67804199,0.001801,-0.40545509,-1.4840831,0.37744936
2418295598880,0.72692342,0,,0.0010583851,-0.002893337,0.00091186473,9.8514433,-0.36399201,0.80846101,0.734703,-0.021585001,-0.67804199,0.001801,-0.40545509,-1.4840831,0.37744936
2418297594688,0.72891923,0,,0.0012849638,-0.0030274831,0.00021525146,9.8811617,-0.218136,0.84995997,0.73470002,-0.021585001,-0.67804599,0.001804,-0.40555163,-1.4840901,0.37755006
2418299593632,0.73091818,0,,0.0012849638,-0.0030274831,0.00021525146,9.8811617,-0.218136,0.84995997,0.73470002,-0.021585001,-0.67804599,0.001804,-0.40555163,-1.4840901,0.37755006
2418301593504,0.73291805,0,,0.0012849638,-0.0030274831,0.00021525146,9.8811617,-0.218136,0.84995997,0.73470002,-0.021585001,-0.67804599,0.001804,-0.40555163,-1.4840901,0.37755006
2418303591680,0.73491622,0,,0.00010253809,-0.001561197,-0.0072063074,9.9158373,-0.39764899,0.75393999,0.73469901,-0.021577001,-0.67804599,0.00179,-0.40520968,-1.4841018,0.37719915
2418305589568,0.73691411,0,,0.00010253809,-0.001561197,-0.0072063074,9.9158373,-0.39764899,0.75393999,0.73469901,-0.021577001,-0.67804599,0.00179,-0.40520968,-1.4841018,0.37719915
2418307587552,0.7389121,0,,-0.00066041512,0.0032211797,-0.004515568,9.8052807,-0.421195,0.72315902,0.73470002,-0.021563999,-0.67804599,0.001779,-0.40485062,-1.4841147,0.37684242
2418309589536,0.74091408,0,,-0.00066041512,0.0032211797,-0.004515568,9.8052807,-0.421195,0.72315902,0.73470002,-0.021563999,-0.67804599,0.001779,-0.40485062,-1.4841147,0.37684242
2418311585184,0.74290973,0,,-0.00066041512,0.0032211797,-0.004515568,9.8052807,-0.421195,0.72315902,0.73470002,-0.021563999,-0.67804599,0.001779,-0.40485062,-1.4841147,0.37684242
2418313743616,0.74506816,0,,-0.00066041512,0.0032211797,-0.004515568,9.8052807,-0.421195,0.72315902,0.73470002,-0.021563999,-0.67804599,0.001779,-0.40485062,-1.4841147,0.37684242
2418315586720,0.74691126,0,,-0.00066041512,0.0032211797,-0.004515568,9.8052807,-0.421195,0.72315902,0.73470002,-0.021563999,-0.67804599,0.001779,-0.40485062,-1.4841147,0.37684242
2418317580640,0.74890518,0,,-0.0019284317,-0.0034031826,0.00074110169,9.6991138,-0.34356001,0.82061398,0.73469901,-0.021569001,-0.678047,0.0017509999,-0.40452884,-1.484132,0.376475
2418319579616,0.75090416,0,,-0.0019284317,-0.0034031826,0.00074110169,9.6991138,-0.34356001,0.82061398,0.73469901,-0.021569001,-0.678047,0.0017509999,-0.40452884,-1.484132,0.376475
2418321579936,0.75290448,0,,-0.0019284317,-0.0034031826,0.00074110169,9.6991138,-0.34356001,0.82061398,0.73469901,-0.021569001,-0.678047,0.0017509999,-0.40452884,-1.484132,0.376475
2418323661248,0.75498579,0,,0.003982754,0.0020999103,0.0015509345,9.6912088,-0.38021299,0.71977401,0.73470098,-0.021570001,-0.67804497,0.001753,-0.40456273,-1.4841223,0.37650933
2418325629408,0.75695395,0,,0.003982754,0.0020999103,0.0015509345,9.6912088,-0.38021299,0.71977401,0.73470098,-0.021570001,-0.67804497,0.001753,-0.40456273,-1.4841223,0.37650933
2418327585728,0.75891027,0,,-0.00077325064,0.0022777944,-0.0028392494,9.7723503,-0.310325,0.761859,0.734703,-0.021567,-0.67804301,0.001756,-0.40453623,-1.4841175,0.37649241
2418329583776,0.76090832,0,,-0.00077325064,0.0022777944,-0.0028392494,9.7723503,-0.310325,0.761859,0.734703,-0.021567,-0.67804301,0.001756,-0.40453623,-1.4841175,0.37649241
2418331577664,0.76290221,0,,-0.00077325064,0.0022777944,-0.0028392494,9.7723503,-0.310325,0.761859,0.734703,-0.021567,-0.67804301,0.001756,-0.40453623,-1.4841175,0.37649241
2418333767008,0.76509155,0,,-0.00042200317,0.0023873138,0.00010747737,9.7770233,-0.28695601,0.79517597,0.73470801,-0.021565,-0.67803699,0.0017509999,-0.40434901,-1.4841079,0.37630087
2418335583392,0.76690794,0,,-0.00042200317,0.0023873138,0.00010747737,9.7770233,-0.28695601,0.79517597,0.73470801,-0.021565,-0.67803699,0.0017509999,-0.40434901,-1.4841079,0.37630087
2418337574592,0.76889914,0,,-0.0030091921,-0.0021236818,0.0021345202,9.7452717,-0.31999001,0.73986501,0.73470998,-0.021570999,-0.67803502,0.001745,-0.40434172,-1.4841024,0.37627583
2418339566624,0.77089117,0,,-0.0030091921,-0.0021236818,0.0021345202,9.7452717,-0.31999001,0.73986501,0.73470998,-0.021570999,-0.67803502,0.001745,-0.40434172,-1.4841024,0.37627583
2418341564864,0.77288941,0,,-0.0030091921,-0.0021236818,0.0021345202,9.7452717,-0.31999001,0.73986501,0.73470998,-0.021570999,-0.67803502,0.001745,-0.40434172,-1.4841024,0.37627583
2418343560736,0.77488528,0,,0.00049815189,0.0016232783,0.0011564377,9.697876,-0.39102,0.786865,0.73470801,-0.021578001,-0.67803699,0.001744,-0.40445517,-1.4841031,0.3763784
2418345561024,0.77688557,0,,0.00049815189,0.0016232783,0.0011564377,9.697876,-0.39102,0.786865,0.73470801,-0.021578001,-0.67803699,0.001744,-0.40445517,-1.4841031,0.3763784
2418347557216,0.77888176,0,,-0.0012504935,-0.0012703728,-0.0046120847,9.8496828,-0.33594,0.833727,0.73470998,-0.021577001,-0.67803502,0.001744,-0.40442974,-1.4840982,0.3763548
2418349562400,0.78088694,0,,-0.0012504935,-0.0012703728,-0.0046120847,9.8496828,-0.33594,0.833727,0.73470998,-0.021577001,-0.67803502,0.001744,-0.40442974,-1.4840982,0.3763548
2418351586336,0.78291088,0,,-0.0012504935,-0.0012703728,-0.0046120847,9.8496828,-0.33594,0.833727,0.73470998,-0.021577001,-0.67803502,0.001744,-0.40442974,-1.4840982,0.3763548
2418353643008,0.78496755,0,,0.0022677935,-0.0014453596,-0.0020747427,9.8858109,-0.322364,0.82383597,0.73470998,-0.021573,-0.67803502,0.0017349999,-0.40422238,-1.4841051,0.37614058
2418355584032,0.78690858,0,,0.0022677935,-0.0014453596,-0.0020747427,9.8858109,-0.322364,0.82383597,0.73470998,-0.021573,-0.67803502,0.0017349999,-0.40422238,-1.4841051,0.37614058
2418357653792,0.78897834,0,,0.0067297977,0.003294466,-0.002637402,9.771142,-0.375415,0.80792302,0.73471397,-0.021562001,-0.67803103,0.0017349999,-0.40401076,-1.4840982,0.37594387
2418359602368,0.79092691,0,,0.0067297977,0.003294466,-0.002637402,9.771142,-0.375415,0.80792302,0.73471397,-0.021562001,-0.67803103,0.0017349999,-0.40401076,-1.4840982,0.37594387
2418361613824,0.79293837,0,,0.0067297977,0.003294466,-0.002637402,9.771142,-0.375415,0.80792302,0.73471397,-0.021562001,-0.67803103,0.0017349999,-0.40401076,-1.4840982,0.37594387
2418363588128,0.79491267,0,,0.0046321037,0.001262833,-0.00393762,9.8552952,-0.32966,0.852736,0.73472202,-0.021547999,-0.67802298,0.001739,-0.4037478,-1.4840853,0.37570722
2418365577728,0.79690227,0,,0.0046321037,0.001262833,-0.00393762,9.8552952,-0.32966,0.852736,0.73472202,-0.021547999,-0.67802298,0.001739,-0.4037478,-1.4840853,0.37570722
2418367576384,0.79890093,0,,0.0013950941,-0.0015704996,0.0010645287,9.8459196,-0.40737501,0.80831897,0.73472399,-0.021540999,-0.67802101,0.0017349999,-0.40356068,-1.4840865,0.37552382
2418369617856,0.8009424,0,,0.0013950941,-0.0015704996,0.0010645287,9.8459196,-0.40737501,0.80831897,0.73472399,-0.021540999,-0.67802101,0.0017349999,-0.40356068,-1.4840865,0.37552382
2418371579936,0.80290448,0,,0.0013950941,-0.0015704996,0.0010645287,9.8459196,-0.40737501,0.80831897,0.73472399,-0.021540999,-0.67802101,0.0017349999,-0.40356068,-1.4840865,0.37552382
2418373789696,0.80511424,0,,0.0039373755,0.0026743331,0.0058997538,9.8016243,-0.42192701,0.80327797,0.73472601,-0.021543,-0.67801797,0.001749,-0.40376102,-1.4840694,0.3757406
2418375593024,0.80691757,0,,0.0039373755,0.0026743331,0.0058997538,9.8016243,-0.42192701,0.80327797,0.73472601,-0.021543,-0.67801797,0.001749,-0.40376102,-1.4840694,0.3757406
2418377582976,0.80890752,0,,0.0074199704,0.0072410393,0.003964114,9.7208595,-0.27105501,0.82476598,0.73473799,-0.021544,-0.67800498,0.001772,-0.40395004,-1.4840248,0.37596015
2418379578368,0.81090291,0,,0.0074199704,0.0072410393,0.003964114,9.7208595,-0.27105501,0.82476598,0.73473799,-0.021544,-0.67800498,0.001772,-0.40395004,-1.4840248,0.37596015
2418381579328,0.81290387,0,,0.0074199704,0.0072410393,0.003964114,9.7208595,-0.27105501,0.82476598,0.73473799,-0.021544,-0.67800498,0.001772,-0.40395004,-1.4840248,0.37596015
2418383574304,0.81489885,0,,0.0072731533,-0.00071623078,0.0019713319,9.6990938,-0.31364,0.81657898,0.73474801,-0.021538001,-0.67799503,0.0017809999,-0.40386159,-1.4839978,0.37589337
2418385573248,0.81689779,0,,0.0072731533,-0.00071623078,0.0019713319,9.6990938,-0.31364,0.81657898,0.73474801,-0.021538001,-0.67799503,0.0017809999,-0.40386159,-1.4839978,0.37589337
2418387571744,0.81889629,0,,0.0043810384,-0.00037830011,0.0011012853,9.665803,-0.40136501,0.78903097,0.73474902,-0.02153,-0.67799401,0.00179,-0.40383985,-1.4839945,0.37589583
2418389591616,0.82091616,0,,0.0043810384,-0.00037830011,0.0011012853,9.665803,-0.40136501,0.78903097,0.73474902,-0.02153,-0.67799401,0.00179,-0.40383985,-1.4839945,0.37589583
2418391599648,0.82292419,0,,0.0043810384,-0.00037830011,0.0011012853,9.665803,-0.40136501,0.78903097,0.73474902,-0.02153,-0.67799401,0.00179,-0.40383985,-1.4839945,0.37589583
2418393771904,0.82509645,0,,0.00184223,0.0010189931,-0.0014708414,9.8548803,-0.372576,0.82616103,0.734752,-0.021526,-0.67799002,0.0017959999,-0.40381219,-1.4839847,0.37588278
2418395588992,0.82691354,0,,0.00184223,0.0010189931,-0.0014708414,9.8548803,-0.372576,0.82616103,0.734752,-0.021526,-0.67799002,0.0017959999,-0.40381219,-1.4839847,0.37588278
2418397567936,0.82889248,0,,-9.2467541e-05,0.00049019316,-0.0043995385,9.8462276,-0.39028201,0.80264997,0.73475599,-0.021521,-0.67798698,0.001793,-0.40365636,-1.4839785,0.37572865
2418399564416,0.83088896,0,,-9.2467541e-05,0.00049019316,-0.0043995385,9.8462276,-0.39028201,0.80264997,0.73475599,-0.021521,-0.67798698,0.001793,-0.40365636,-1.4839785,0.37572865
2418401563680,0.83288822,0,,-9.2467541e-05,0.00049019316,-0.0043995385,9.8462276,-0.39028201,0.80264997,0.73475599,-0.021521,-0.67798698,0.001793,-0.40365636,-1.4839785,0.37572865
2418403560320,0.83488486,0,,0.00061269785,0.00062407741,-0.0036814056,9.7824364,-0.36482501,0.76378602,0.73475897,-0.021515001,-0.677984,0.001785,-0.40341511,-1.4839785,0.37548644
2418405562208,0.83688675,0,,0.00061269785,0.00062407741,-0.0036814056,9.7824364,-0.36482501,0.76378602,0.73475897,-0.021515001,-0.677984,0.001785,-0.40341511,-1.4839785,0.37548644
2418407561664,0.83888621,0,,0.00019786798,-0.0016365429,-0.0011256676,9.8455172,-0.29192501,0.78645802,0.73475897,-0.021509999,-0.677984,0.001783,-0.40330509,-1.4839834,0.37538031
2418409640320,0.84096486,0,,0.00019786798,-0.0016365429,-0.0011256676,9.8455172,-0.29192501,0.78645802,0.73475897,-0.021509999,-0.677984,0.001783,-0.40330509,-1.4839834,0.37538031
2418411566528,0.84289107,0,,0.00019786798,-0.0016365429,-0.0011256676,9.8455172,-0.29192501,0.78645802,0.73475897,-0.021509999,-0.677984,0.001783,-0.40330509,-1.4839834,0.37538031
2418413633120,0.84495766,0,,-0.00092994633,-0.00011657054,-0.0017603391,9.8197136,-0.27341101,0.79740798,0.73475599,-0.021508999,-0.67798698,0.001773,-0.40318648,-1.4839978,0.37524839
2418415587712,0.84691226,0,,-0.00092994633,-0.00011657054,-0.0017603391,9.8197136,-0.27341101,0.79740798,0.73475599,-0.021508999,-0.67798698,0.001773,-0.40318648,-1.4839978,0.37524839
2418417586080,0.84891062,0,,0.007989838,-0.0003243869,-0.00022561872,9.8354874,-0.27897301,0.77560997,0.73475897,-0.021500001,-0.677984,0.001772,-0.40299163,-1.4839951,0.3750638
2418419590944,0.85091549,0,,0.007989838,-0.0003243869,-0.00022561872,9.8354874,-0.27897301,0.77560997,0.73475897,-0.021500001,-0.677984,0.001772,-0.40299163,-1.4839951,0.3750638
2418421583296,0.85290784,0,,0.007989838,-0.0003243869,-0.00022561872,9.8354874,-0.27897301,0.77560997,0.73475897,-0.021500001,-0.677984,0.001772,-0.40299163,-1.4839951,0.3750638
2418423629824,0.85495437,0,,0.0057873372,-0.0017531483,0.0003009122,9.7410383,-0.35009199,0.752514,0.73475701,-0.021488,-0.67798698,0.001779,-0.40291374,-1.4840034,0.37501359
2418425587584,0.85691213,0,,0.0057873372,-0.0017531483,0.0003009122,9.7410383,-0.35009199,0.752514,0.73475701,-0.021488,-0.67798698,0.001779,-0.40291374,-1.4840034,0.37501359
2418427584448,0.85890899,0,,0.0052367209,0.00017133896,-0.0037845894,9.7932377,-0.38643801,0.75756699,0.73475599,-0.021475,-0.67798799,0.001786,-0.40283138,-1.4840082,0.37495883
2418429580032,0.86090458,0,,0.0052367209,0.00017133896,-0.0037845894,9.7932377,-0.38643801,0.75756699,0.73475599,-0.021475,-0.67798799,0.001786,-0.40283138,-1.4840082,0.37495883
2418431578688,0.86290323,0,,0.0052367209,0.00017133896,-0.0037845894,9.7932377,-0.38643801,0.75756699,0.73475599,-0.021475,-0.67798799,0.001786,-0.40283138,-1.4840082,0.37495883
2418433735712,0.86506026,0,,-0.00032798227,0.0010613696,-0.0053498532,9.7892103,-0.34172401,0.7324,0.73475802,-0.021461001,-0.67798698,0.001784,-0.40257871,-1.4840151,0.37472371
2418435574592,0.86689914,0,,-0.00032798227,0.0010613696,-0.0053498532,9.7892103,-0.34172401,0.7324,0.73475802,-0.021461001,-0.67798698,0.001784,-0.40257871,-1.4840151,0.37472371
2418437573344,0.86889789,0,,-0.0034629775,-0.0016334012,-0.0067276333,9.9140024,-0.201147,0.78057098,0.73475599,-0.021454001,-0.67798799,0.001768,-0.40224492,-1.4840285,0.3743766
2418439606976,0.87093152,0,,-0.0034629775,-0.0016334012,-0.0067276333,9.9140024,-0.201147,0.78057098,0.73475599,-0.021454001,-0.67798799,0.001768,-0.40224492,-1.4840285,0.3743766
2418441575552,0.8729001,0,,-0.0034629775,-0.0016334012,-0.0067276333,9.9140024,-0.201147,0.78057098,0.73475599,-0.021454001,-0.67798799,0.001768,-0.40224492,-1.4840285,0.3743766
2418443573344,0.87489789,0,,-0.002065318,-0.0010203369,-0.0081731847,9.7877331,-0.35765201,0.75911802,0.73475403,-0.021444,-0.67799199,0.0017359999,-0.40167413,-1.4840625,0.37377612
2418445570976,0.87689552,0,,-0.002065318,-0.0010203369,-0.0081731847,9.7877331,-0.35765201,0.75911802,0.73475403,-0.021444,-0.67799199,0.0017359999,-0.40167413,-1.4840625,0.37377612
2418447566656,0.8788912,0,,-0.0055804632,-0.00040404373,-0.0067058864,9.7683716,-0.32901099,0.767928,0.73475301,-0.021438001,-0.677993,0.001717,-0.40130695,-1.4840769,0.37338937
2418449626432,0.88095098,0,,-0.0055804632,-0.00040404373,-0.0067058864,9.7683716,-0.32901099,0.767928,0.73475301,-0.021438001,-0.677993,0.001717,-0.40130695,-1.4840769,0.37338937
2418451573024,0.88289757,0,,-0.0055804632,-0.00040404373,-0.0067058864,9.7683716,-0.32901099,0.767928,0.73475301,-0.021438001,-0.677993,0.001717,-0.40130695,-1.4840769,0.37338937
2418453813408,0.88513795,0,,0.0010134429,0.0029131466,-0.0030635065,9.6929073,-0.30349401,0.79882699,0.73475498,-0.021431999,-0.67799097,0.001701,-0.40095382,-1.4840825,0.37302368
2418455565248,0.88688979,0,,0.0010134429,0.0029131466,-0.0030635065,9.6929073,-0.30349401,0.79882699,0.73475498,-0.021431999,-0.67799097,0.001701,-0.40095382,-1.4840825,0.37302368
2418457595552,0.8889201,0,,-0.0044856533,0.0008944114,0.0022126411,9.6834812,-0.21962,0.83268899,0.73475999,-0.021436,-0.67798603,0.001693,-0.40084596,-1.4840721,0.37289845
2418459565472,0.89089002,0,,-0.0044856533,0.0008944114,0.0022126411,9.6834812,-0.21962,0.83268899,0.73475999,-0.021436,-0.67798603,0.001693,-0.40084596,-1.4840721,0.37289845
2418461560864,0.89288541,0,,-0.0044856533,0.0008944114,0.0022126411,9.6834812,-0.21962,0.83268899,0.73475999,-0.021436,-0.67798603,0.001693,-0.40084596,-1.4840721,0.37289845
2418463558976,0.89488352,0,,0.0050013806,-0.0016668593,0.0023975589,9.753953,-0.26854101,0.855313,0.734761,-0.021439999,-0.677984,0.001684,-0.40076783,-1.4840688,0.37280041
2418465557632,0.89688218,0,,0.0050013806,-0.0016668593,0.0023975589,9.753953,-0.26854101,0.855313,0.734761,-0.021439999,-0.677984,0.001684,-0.40076783,-1.4840688,0.37280041
2418467588608,0.89891315,0,,0.0031000363,0.00095099499,0.0064805471,9.5919685,-0.47308499,0.78546,0.73476398,-0.021441,-0.67798102,0.001691,-0.40083484,-1.4840584,0.37287657
2418469586592,0.90091114,0,,0.0031000363,0.00095099499,0.0064805471,9.5919685,-0.47308499,0.78546,0.73476398,-0.021441,-0.67798102,0.001691,-0.40083484,-1.4840584,0.37287657
2418471586112,0.90291066,0,,0.0031000363,0.00095099499,0.0064805471,9.5919685,-0.47308499,0.78546,0.73476398,-0.021441,-0.67798102,0.001691,-0.40083484,-1.4840584,0.37287657
2418473628928,0.90495347,0,,0.0051808356,0.0062142799,0.010472046,9.7415314,-0.43294099,0.82592702,0.73477298,-0.021451,-0.67796999,0.001722,-0.40132469,-1.4840095,0.37339709
2418475583648,0.90690819,0,,0.0051808356,0.0062142799,0.010472046,9.7415314,-0.43294099,0.82592702,0.73477298,-0.021451,-0.67796999,0.001722,-0.40132469,-1.4840095,0.37339709
2418477610656,0.9089352,0,,0.0012905837,-0.0010072818,0.012140772,9.6936817,-0.451444,0.82373703,0.73478103,-0.021467,-0.67796201,0.0017509999,-0.40189817,-1.4839661,0.37398778
2418479580576,0.91090512,0,,0.0012905837,-0.0010072818,0.012140772,9.6936817,-0.451444,0.82373703,0.73478103,-0.021467,-0.67796201,0.0017509999,-0.40189817,-1.4839661,0.37398778
2418481581376,0.91290592,0,,0.0012905837,-0.0010072818,0.012140772,9.6936817,-0.451444,0.82373703,0.73478103,-0.021467,-0.67796201,0.0017509999,-0.40189817,-1.4839661,0.37398778
2418483577408,0.91490195,0,,-0.0010818598,0.0046067444,0.0073968623,9.8768749,-0.37419301,0.86651599,0.73478699,-0.021488,-0.67795402,0.001776,-0.40248959,-1.4839236,0.37458529
2418485582080,0.91690662,0,,-0.0010818598,0.0046067444,0.0073968623,9.8768749,-0.37419301,0.86651599,0.73478699,-0.021488,-0.67795402,0.001776,-0.40248959,-1.4839236,0.37458529
2418487574016,0.91889856,0,,-0.0038844745,0.0035208178,0.0045134391,9.7349968,-0.42971301,0.80425102,0.734797,-0.021505,-0.67794198,0.00178,-0.40268647,-1.483881,0.37476372
2418489676096,0.92100064,0,,-0.0038844745,0.0035208178,0.0045134391,9.7349968,-0.42971301,0.80425102,0.734797,-0.021505,-0.67794198,0.00178,-0.40268647,-1.483881,0.37476372
2418491590240,0.92291478,0,,-0.0038844745,0.0035208178,0.0045134391,9.7349968,-0.42971301,0.80425102,0.734797,-0.021505,-0.67794198,0.00178,-0.40268647,-1.483881,0.37476372
2418493617216,0.92494176,0,,0.00016334537,-0.00029459412,0.0049857772,9.7976952,-0.40329599,0.83979899,0.73480201,-0.021522,-0.67793697,0.001789,-0.4030197,-1.4838556,0.37508573
2418495571072,0.92689562,0,,0.00016334537,-0.00029459412,0.0049857772,9.7976952,-0.40329599,0.83979899,0.73480201,-0.021522,-0.67793697,0.001789,-0.4030197,-1.4838556,0.37508573
2418497559872,0.92888442,0,,0.0063677815,0.0015264126,0.0043903058,9.8439751,-0.27380401,0.80516899,0.73480701,-0.021523999,-0.67793101,0.001804,-0.40318768,-1.4838301,0.37527192
2418499557984,0.93088253,0,,0.0063677815,0.0015264126,0.0043903058,9.8439751,-0.27380401,0.80516899,0.73480701,-0.021523999,-0.67793101,0.001804,-0.40318768,-1.4838301,0.37527192
2418501558080,0.93288262,0,,0.0063677815,0.0015264126,0.0043903058,9.8439751,-0.27380401,0.80516899,0.73480701,-0.021523999,-0.67793101,0.001804,-0.40318768,-1.4838301,0.37527192
2418503555072,0.93487962,0,,0.006997758,-0.0020047201,0.0012087104,10.031403,-0.33449799,0.85523599,0.73480701,-0.021516001,-0.67793101,0.001815,-0.40323125,-1.4838295,0.37534329
2418505579904,0.93690445,0,,0.006997758,-0.0020047201,0.0012087104,10.031403,-0.33449799,0.85523599,0.73480701,-0.021516001,-0.67793101,0.001815,-0.40323125,-1.4838295,0.37534329
2418507555040,0.93887958,0,,0.00029283134,-0.00075466294,0.0037839784,9.9144993,-0.35800901,0.79177797,0.73480803,-0.021514,-0.67793,0.001822,-0.40329414,-1.483824,0.3754186
2418509586272,0.94091082,0,,0.00029283134,-0.00075466294,0.0037839784,9.9144993,-0.35800901,0.79177797,0.73480803,-0.021514,-0.67793,0.001822,-0.40329414,-1.483824,0.3754186
2418511551776,0.94287632,0,,0.00029283134,-0.00075466294,0.0037839784,9.9144993,-0.35800901,0.79177797,0.73480803,-0.021514,-0.67793,0.001822,-0.40329414,-1.483824,0.3754186
2418513748576,0.94507312,0,,0.0062495704,0.0042296483,0.0034077729,9.9169617,-0.34828299,0.75210297,0.73481297,-0.021516001,-0.67792499,0.001835,-0.40345153,-1.4838042,0.37559237
2418515552768,0.94687731,0,,0.0062495704,0.0042296483,0.0034077729,9.9169617,-0.34828299,0.75210297,0.73481297,-0.021516001,-0.67792499,0.001835,-0.40345153,-1.4838042,0.37559237
2418517559808,0.94888435,0,,0.0062495704,0.0042296483,0.0034077729,9.9169617,-0.34828299,0.75210297,0.73481297,-0.021516001,-0.67792499,0.001835,-0.40345153,-1.4838042,0.37559237
2418519555072,0.95087962,0,,0.0062495704,0.0042296483,0.0034077729,9.9169617,-0.34828299,0.75210297,0.73481297,-0.021516001,-0.67792499,0.001835,-0.40345153,-1.4838042,0.37559237
2418521572448,0.95289699,0,,0.0062495704,0.0042296483,0.0034077729,9.9169617,-0.34828299,0.75210297,0.73481297,-0.021516001,-0.67792499,0.001835,-0.40345153,-1.4838042,0.37559237
2418523654752,0.9549793,0,,0.0043873561,0.0047334552,-0.0027289445,9.8315773,-0.23928399,0.73527902,0.734824,-0.021489,-0.67791402,0.001848,-0.40307323,-1.4837822,0.37526949
2418525595552,0.9569201,0,,0.0043873561,0.0047334552,-0.0027289445,9.8315773,-0.23928399,0.73527902,0.734824,-0.021489,-0.67791402,0.001848,-0.40307323,-1.4837822,0.37526949
2418527593440,0.95891798,0,,0.0059342069,0.0018644654,-0.0018555643,9.6762714,-0.340078,0.756845,0.73482901,-0.021472,-0.67790902,0.001845,-0.40271673,-1.4837795,0.37493263
2418529587552,0.9609121,0,,0.0059342069,0.0018644654,-0.0018555643,9.6762714,-0.340078,0.756845,0.73482901,-0.021472,-0.67790902,0.001845,-0.40271673,-1.4837795,0.37493263
2418531584640,0.96290918,0,,0.0059342069,0.0018644654,-0.0018555643,9.6762714,-0.340078,0.756845,0.73482901,-0.021472,-0.67790902,0.001845,-0.40271673,-1.4837795,0.37493263
2418533740064,0.96506461,0,,-0.0060866261,-0.00034588936,-0.0028257055,9.6438122,-0.32476601,0.75673503,0.73482901,-0.021470999,-0.67790902,0.001841,-0.4026149,-1.483783,0.37482697
2418535606752,0.9669313,0,,-0.0060866261,-0.00034588936,-0.0028257055,9.6438122,-0.32476601,0.75673503,0.73482901,-0.021470999,-0.67790902,0.001841,-0.4026149,-1.483783,0.37482697
2418537605696,0.96893024,0,,-0.0059988536,-0.0045956439,-0.0017241759,9.7041082,-0.25039899,0.77518898,0.73482502,-0.021476001,-0.67791301,0.001824,-0.40250218,-1.4837972,0.37468323
2418539597312,0.97092186,0,,-0.0059988536,-0.0045956439,-0.0017241759,9.7041082,-0.25039899,0.77518898,0.73482502,-0.021476001,-0.67791301,0.001824,-0.40250218,-1.4837972,0.37468323
2418541580768,0.97290531,0,,-0.0059988536,-0.0045956439,-0.0017241759,9.7041082,-0.25039899,0.77518898,0.73482502,-0.021476001,-0.67791301,0.001824,-0.40250218,-1.4837972,0.37468323
2418543573760,0.9748983,0,,-0.0036833604,-0.0020247215,0.0010684557,9.7082777,-0.18056899,0.78337902,0.73482001,-0.021485999,-0.67791897,0.001808,-0.40251746,-1.4838166,0.37466109
2418545574464,0.97689901,0,,-0.0036833604,-0.0020247215,0.0010684557,9.7082777,-0.18056899,0.78337902,0.73482001,-0.021485999,-0.67791897,0.001808,-0.40251746,-1.4838166,0.37466109
2418547572992,0.97889754,0,,0.00043425537,-0.00052670545,0.0061122304,9.7284946,-0.327043,0.78523701,0.73481899,-0.021492999,-0.67791897,0.001801,-0.40252145,-1.4838193,0.37464618
2418549572512,0.98089706,0,,0.00043425537,-0.00052670545,0.0061122304,9.7284946,-0.327043,0.78523701,0.73481899,-0.021492999,-0.67791897,0.001801,-0.40252145,-1.4838193,0.37464618
2418551570720,0.98289526,0,,0.00043425537,-0.00052670545,0.0061122304,9.7284946,-0.327043,0.78523701,0.73481899,-0.021492999,-0.67791897,0.001801,-0.40252145,-1.4838193,0.37464618
2418553746912,0.98507146,0,,0.0043170195,0.0041977785,0.007949591,9.7278042,-0.34896901,0.76660597,0.73482299,-0.021499,-0.67791498,0.001814,-0.40275658,-1.4837979,0.37488989
2418555570656,0.9868952,0,,0.0043170195,0.0041977785,0.007949591,9.7278042,-0.34896901,0.76660597,0.73482299,-0.021499,-0.67791498,0.001814,-0.40275658,-1.4837979,0.37488989
2418557597856,0.9889224,0,,-0.00053129566,0.0032924413,0.0062872344,9.8254967,-0.38731399,0.77855802,0.73483098,-0.021509999,-0.67790598,0.001832,-0.40307938,-1.4837597,0.37522312
2418559570688,0.99089523,0,,-0.00053129566,0.0032924413,0.0062872344,9.8254967,-0.38731399,0.77855802,0.73483098,-0.021509999,-0.67790598,0.001832,-0.40307938,-1.4837597,0.37522312
2418561574336,0.99289888,0,,-0.00053129566,0.0032924413,0.0062872344,9.8254967,-0.38731399,0.77855802,0.73483098,-0.021509999,-0.67790598,0.001832,-0.40307938,-1.4837597,0.37522312
2418563562880,0.99488742,0,,-0.00187581,0.0024258331,0.0049360006,9.7887802,-0.369762,0.82311398,0.73483598,-0.021521,-0.677899,0.001838,-0.40327243,-1.4837335,0.37540854
2418565561088,0.99688563,0,,-0.00187581,0.0024258331,0.0049360006,9.7887802,-0.369762,0.82311398,0.73483598,-0.021521,-0.677899,0.001838,-0.40327243,-1.4837335,0.37540854
2418567558720,0.99888326,0,,-0.00095497433,0.0065099907,0.0060680562,9.8444252,-0.36714199,0.78850001,0.73484701,-0.021537,-0.67788702,0.001846,-0.40350336,-1.4836898,0.37562859
2418569590464,1.000915,0,,-0.00095497433,0.0065099907,0.0060680562,9.8444252,-0.36714199,0.78850001,0.73484701,-0.021537,-0.67788702,0.001846,-0.40350336,-1.4836898,0.37562859
2418571596960,1.0029215,0,,-0.00095497433,0.0065099907,0.0060680562,9.8444252,-0.36714199,0.78850001,0.73484701,-0.021537,-0.67788702,0.001846,-0.40350336,-1.4836898,0.37562859
2418573748192,1.0050727,0,,-0.001444993,0.0025566456,0.0010219077,9.8896465,-0.439136,0.79050303,0.734855,-0.021546001,-0.67787802,0.001851,-0.4035983,-1.4836617,0.3757182
2418575553952,1.0068785,0,,-0.001444993,0.0025566456,0.0010219077,9.8896465,-0.439136,0.79050303,0.734855,-0.021546001,-0.67787802,0.001851,-0.4035983,-1.4836617,0.3757182
2418577554912,1.0088795,0,,0.00095890132,-0.0018191741,-0.0063876605,9.95965,-0.305603,0.854204,0.73485601,-0.021545,-0.67787802,0.00185,-0.40356391,-1.4836617,0.37568435
2418579551936,1.0108765,0,,0.00095890132,-0.0018191741,-0.0063876605,9.95965,-0.305603,0.854204,0.73485601,-0.021545,-0.67787802,0.00185,-0.40356391,-1.4836617,0.37568435
2418581564544,1.0128891,0,,0.00095890132,-0.0018191741,-0.0063876605,9.95965,-0.305603,0.854204,0.73485601,-0.021545,-0.67787802,0.00185,-0.40356391,-1.4836617,0.37568435
2418583583104,1.0149076,0,,0.00095890132,-0.0018191741,-0.0063876605,9.95965,-0.305603,0.854204,0.73485601,-0.021545,-0.67787802,0.00185,-0.40356391,-1.4836617,0.37568435
2418585625088,1.0169496,0,,0.00095890132,-0.0018191741,-0.0063876605,9.95965,-0.305603,0.854204,0.73485601,-0.021545,-0.67787802,0.00185,-0.40356391,-1.4836617,0.37568435
2418587584576,1.0189091,0,,0.0052817501,-0.0045130027,-0.0026167025,9.7533178,-0.41505399,0.85783899,0.73484999,-0.021516999,-0.67788398,0.001836,-0.40299902,-1.4836999,0.37513763
2418589582912,1.0209075,0,,0.0052817501,-0.0045130027,-0.0026167025,9.7533178,-0.41505399,0.85783899,0.73484999,-0.021516999,-0.67788398,0.001836,-0.40299902,-1.4836999,0.37513763
2418591614368,1.0229389,0,,0.0052817501,-0.0045130027,-0.0026167025,9.7533178,-0.41505399,0.85783899,0.73484999,-0.021516999,-0.67788398,0.001836,-0.40299902,-1.4836999,0.37513763
2418593632224,1.0249568,0,,0.0056839613,0.001014717,-0.0035585169,9.7335138,-0.482068,0.80558801,0.734851,-0.021504,-0.67788398,0.0018429999,-0.4028924,-1.483702,0.3750597
2418595601408,1.026926,0,,0.0056839613,0.001014717,-0.0035585169,9.7335138,-0.482068,0.80558801,0.734851,-0.021504,-0.67788398,0.0018429999,-0.4028924,-1.483702,0.3750597
2418597575584,1.0289001,0,,0.0021149377,0.0015287339,-0.0072144405,9.7210197,-0.48515099,0.79678601,0.73485601,-0.02149,-0.67787999,0.001845,-0.40263863,-1.4836966,0.37482907
2418599573984,1.0308985,0,,0.0021149377,0.0015287339,-0.0072144405,9.7210197,-0.48515099,0.79678601,0.73485601,-0.02149,-0.67787999,0.001845,-0.40263863,-1.4836966,0.37482907
2418601610688,1.0329352,0,,0.0021149377,0.0015287339,-0.0072144405,9.7210197,-0.48515099,0.79678601,0.73485601,-0.02149,-0.67787999,0.001845,-0.40263863,-1.4836966,0.37482907
2418603574016,1.0348986,0,,0.00095123933,-0.0017644756,-0.0054802466,9.8482571,-0.398882,0.86578602,0.73485798,-0.021482,-0.67787802,0.001846,-0.40249236,-1.4836951,0.37469568
2418605568928,1.0368935,0,,0.00095123933,-0.0017644756,-0.0054802466,9.8482571,-0.398882,0.86578602,0.73485798,-0.021482,-0.67787802,0.001846,-0.40249236,-1.4836951,0.37469568
2418607567488,1.038892,0,,0.00084994045,-0.0052430214,-0.0079870282,9.7908459,-0.348643,0.85114801,0.734855,-0.021473,-0.677881,0.001834,-0.40222947,-1.4837144,0.37442916
2418609568416,1.040893,0,,0.00084994045,-0.0052430214,-0.0079870282,9.7908459,-0.348643,0.85114801,0.734855,-0.021473,-0.677881,0.001834,-0.40222947,-1.4837144,0.37442916
2418611604640,1.0429292,0,,0.00084994045,-0.0052430214,-0.0079870282,9.7908459,-0.348643,0.85114801,0.734855,-0.021473,-0.677881,0.001834,-0.40222947,-1.4837144,0.37442916
2418613757792,1.0450823,0,,-0.0014056882,-0.0053314399,-0.0016813455,9.7349272,-0.222875,0.78379202,0.73485202,-0.021467,-0.67788398,0.001823,-0.40201459,-1.4837308,0.37420576
2418615566592,1.0468911,0,,-0.0014056882,-0.0053314399,-0.0016813455,9.7349272,-0.222875,0.78379202,0.73485202,-0.021467,-0.67788398,0.001823,-0.40201459,-1.4837308,0.37420576
2418617612256,1.0489368,0,,-0.0014056882,-0.0053314399,-0.0016813455,9.7349272,-0.222875,0.78379202,0.73485202,-0.021467,-0.67788398,0.001823,-0.40201459,-1.4837308,0.37420576
2418619568576,1.0508931,0,,-0.0014056882,-0.0053314399,-0.0016813455,9.7349272,-0.222875,0.78379202,0.73485202,-0.021467,-0.67788398,0.001823,-0.40201459,-1.4837308,0.37420576
2418621563296,1.0528878,0,,-0.0014056882,-0.0053314399,-0.0016813455,9.7349272,-0.222875,0.78379202,0.73485202,-0.021467,-0.67788398,0.001823,-0.40201459,-1.4837308,0.37420576
2418623583552,1.0549081,0,,0.0030406254,0.0025342181,-0.0043020621,9.6984863,-0.360149,0.74339801,0.73484099,-0.021455999,-0.67789698,0.001822,-0.40198569,-1.4837693,0.37419194
2418625558976,1.0568835,0,,0.0030406254,0.0025342181,-0.0043020621,9.6984863,-0.360149,0.74339801,0.73484099,-0.021455999,-0.67789698,0.001822,-0.40198569,-1.4837693,0.37419194
2418627559328,1.0588839,0,,0.0018588803,0.0036501816,-0.0010501821,9.6509619,-0.26052299,0.690727,0.734846,-0.021446999,-0.67789102,0.001824,-0.40178948,-1.4837576,0.37400998
2418629547264,1.0608718,0,,0.0018588803,0.0036501816,-0.0010501821,9.6509619,-0.26052299,0.690727,0.734846,-0.021446999,-0.67789102,0.001824,-0.40178948,-1.4837576,0.37400998
2418631547104,1.0628716,0,,0.0018588803,0.0036501816,-0.0010501821,9.6509619,-0.26052299,0.690727,0.734846,-0.021446999,-0.67789102,0.001824,-0.40178948,-1.4837576,0.37400998
2418633769312,1.0650939,0,,0.00046743409,0.0036353114,-0.0052624469,9.9061823,-0.166665,0.84908098,0.734851,-0.021438001,-0.67788702,0.001814,-0.40144953,-1.4837589,0.3736698
2418635563360,1.0668879,0,,0.00046743409,0.0036353114,-0.0052624469,9.9061823,-0.166665,0.84908098,0.734851,-0.021438001,-0.67788702,0.001814,-0.40144953,-1.4837589,0.3736698
2418637542272,1.0688668,0,,0.005610134,0.00055428165,-0.0014254977,9.9218531,-0.18825901,0.75363398,0.73485798,-0.021426,-0.67787898,0.0017969999,-0.40092645,-1.4837533,0.37313979
2418639593216,1.0709178,0,,0.005610134,0.00055428165,-0.0014254977,9.9218531,-0.18825901,0.75363398,0.73485798,-0.021426,-0.67787898,0.0017969999,-0.40092645,-1.4837533,0.37313979
2418641588864,1.0729134,0,,0.005610134,0.00055428165,-0.0014254977,9.9218531,-0.18825901,0.75363398,0.73485798,-0.021426,-0.67787898,0.0017969999,-0.40092645,-1.4837533,0.37313979
2418643567552,1.0748921,0,,0.0014548715,-0.0072490329,-0.0018920591,9.8768387,-0.368844,0.72321898,0.734851,-0.021415001,-0.67788702,0.001788,-0.40071603,-1.483783,0.37293347
2418645568832,1.0768934,0,,0.0014548715,-0.0072490329,-0.0018920591,9.8768387,-0.368844,0.72321898,0.734851,-0.021415001,-0.67788702,0.001788,-0.40071603,-1.483783,0.37293347
2418647565248,1.0788898,0,,0.0018714642,-0.0055546851,-0.0037867885,9.7946882,-0.40625301,0.71119899,0.734837,-0.021406,-0.677903,0.001789,-0.40077339,-1.4838268,0.37300254
2418649564224,1.0808888,0,,0.0018714642,-0.0055546851,-0.0037867885,9.7946882,-0.40625301,0.71119899,0.734837,-0.021406,-0.677903,0.001789,-0.40077339,-1.4838268,0.37300254
2418651632608,1.0829572,0,,0.0018714642,-0.0055546851,-0.0037867885,9.7946882,-0.40625301,0.71119899,0.734837,-0.021406,-0.677903,0.001789,-0.40077339,-1.4838268,0.37300254
2418653748832,1.0850734,0,,-0.00045835837,0.00014371041,-0.012357769,9.974165,-0.43090799,0.77902901,0.73483002,-0.021392001,-0.67791098,0.001779,-0.40050095,-1.4838576,0.37273656
2418655576960,1.0869015,0,,-0.00045835837,0.00014371041,-0.012357769,9.974165,-0.43090799,0.77902901,0.73483002,-0.021392001,-0.67791098,0.001779,-0.40050095,-1.4838576,0.37273656
2418657584032,1.0889086,0,,-0.0024237213,0.0025298199,-0.0072017519,9.7820187,-0.28090701,0.80599999,0.734833,-0.021377999,-0.677908,0.001763,-0.40001169,-1.483868,0.37224517
2418659566336,1.0908909,0,,-0.0024237213,0.0025298199,-0.0072017519,9.7820187,-0.28090701,0.80599999,0.734833,-0.021377999,-0.677908,0.001763,-0.40001169,-1.483868,0.37224517
2418661561024,1.0928856,0,,-0.0024237213,0.0025298199,-0.0072017519,9.7820187,-0.28090701,0.80599999,0.734833,-0.021377999,-0.677908,0.001763,-0.40001169,-1.483868,0.37224517
2418663556608,1.0948812,0,,-0.0032851983,-0.0063428232,-0.0036220819,9.7599602,-0.160854,0.838485,0.73483098,-0.021376001,-0.67790997,0.001742,-0.39970749,-1.4838851,0.37191334
2418665557568,1.0968821,0,,-0.0032851983,-0.0063428232,-0.0036220819,9.7599602,-0.160854,0.838485,0.73483098,-0.021376001,-0.67790997,0.001742,-0.39970749,-1.4838851,0.37191334
2418667574240,1.0988988,0,,-0.0040584315,-0.010219217,-0.003659903,9.6405764,-0.38851601,0.81452501,0.73482198,-0.021375,-0.67791998,0.001715,-0.399421,-1.4839263,0.37158997
2418669554816,1.1008794,0,,-0.0040584315,-0.010219217,-0.003659903,9.6405764,-0.38851601,0.81452501,0.73482198,-0.021375,-0.67791998,0.001715,-0.399421,-1.4839263,0.37158997
2418671551552,1.1028761,0,,-0.0040584315,-0.010219217,-0.003659903,9.6405764,-0.38851601,0.81452501,0.73482198,-0.021375,-0.67791998,0.001715,-0.399421,-1.4839263,0.37158997
2418673715648,1.1050402,0,,0.0019607552,-0.003012927,-0.0031786809,9.6440611,-0.43639201,0.758075,0.73481297,-0.021374,-0.67793,0.001708,-0.39941401,-1.4839538,0.37157442
2418675549568,1.1068741,0,,0.0019607552,-0.003012927,-0.0031786809,9.6440611,-0.43639201,0.758075,0.73481297,-0.021374,-0.67793,0.001708,-0.39941401,-1.4839538,0.37157442
2418677551232,1.1088758,0,,0.0039199047,0.0010642843,0.00049857074,9.6874714,-0.28652298,0.84070498,0.73481202,-0.021367,-0.67793101,0.001714,-0.39941328,-1.4839573,0.37159263
2418679568064,1.1108926,0,,0.0039199047,0.0010642843,0.00049857074,9.6874714,-0.28652298,0.84070498,0.73481202,-0.021367,-0.67793101,0.001714,-0.39941328,-1.4839573,0.37159263
2418681547392,1.1128719,0,,0.0039199047,0.0010642843,0.00049857074,9.6874714,-0.28652298,0.84070498,0.73481202,-0.021367,-0.67793101,0.001714,-0.39941328,-1.4839573,0.37159263
2418683556960,1.1148815,0,,0.0069508437,0.0040927621,0.0040798816,9.7582035,-0.35484299,0.855645,0.73482102,-0.021366,-0.677921,0.001723,-0.39939577,-1.4839263,0.37158917
2418685544640,1.1168692,0,,0.0069508437,0.0040927621,0.0040798816,9.7582035,-0.35484299,0.855645,0.73482102,-0.021366,-0.677921,0.001723,-0.39939577,-1.4839263,0.37158917
2418687539808,1.1188644,0,,0.0090473158,0.0022608472,-0.00057686624,9.7981615,-0.55502599,0.81126499,0.73483199,-0.021353999,-0.67790902,0.001737,-0.39927056,-1.4838947,0.37150089
2418689570592,1.1208951,0,,0.0090473158,0.0022608472,-0.00057686624,9.7981615,-0.55502599,0.81126499,0.73483199,-0.021353999,-0.67790902,0.001737,-0.39927056,-1.4838947,0.37150089
2418691593376,1.1229179,0,,0.0090473158,0.0022608472,-0.00057686624,9.7981615,-0.55502599,0.81126499,0.73483199,-0.021353999,-0.67790902,0.001737,-0.39927056,-1.4838947,0.37150089
2418693750112,1.1250747,0,,-0.0033688868,-0.00090826933,-0.00030824259,9.768609,-0.377489,0.82663101,0.73483402,-0.02135,-0.677908,0.001755,-0.39945186,-1.4838851,0.37171357
2418695544992,1.1268695,0,,-0.0033688868,-0.00090826933,-0.00030824259,9.768609,-0.377489,0.82663101,0.73483402,-0.02135,-0.677908,0.001755,-0.39945186,-1.4838851,0.37171357
2418697578368,1.1289029,0,,-0.0050124811,-0.0020073904,-0.0012959419,9.9386559,-0.2007,0.85241997,0.73483402,-0.021362999,-0.67790699,0.001746,-0.39951145,-1.4838817,0.37174137
2418699577568,1.1309021,0,,-0.0050124811,-0.0020073904,-0.0012959419,9.9386559,-0.2007,0.85241997,0.73483402,-0.021362999,-0.67790699,0.001746,-0.39951145,-1.4838817,0.37174137
2418701575136,1.1328997,0,,-0.0050124811,-0.0020073904,-0.0012959419,9.9386559,-0.2007,0.85241997,0.73483402,-0.021362999,-0.67790699,0.001746,-0.39951145,-1.4838817,0.37174137
2418703574784,1.1348993,0,,0.0018402926,-0.0016323018,-0.0074165322,9.7931767,-0.57003498,0.831361,0.734833,-0.021352001,-0.67790902,0.0017190001,-0.39897349,-1.4839058,0.37118154
2418705574240,1.1368988,0,,0.0018402926,-0.0016323018,-0.0074165322,9.7931767,-0.57003498,0.831361,0.734833,-0.021352001,-0.67790902,0.0017190001,-0.39897349,-1.4839058,0.37118154
2418707572352,1.1388969,0,,0.0042932308,0.0034411261,-0.0043839007,9.8868752,-0.39768699,0.79096502,0.73483902,-0.021343,-0.677903,0.001729,-0.39889047,-1.4838894,0.37112425
2418709571872,1.1408964,0,,0.0042932308,0.0034411261,-0.0043839007,9.8868752,-0.39768699,0.79096502,0.73483902,-0.021343,-0.677903,0.001729,-0.39889047,-1.4838894,0.37112425
2418711569760,1.1428943,0,,0.0042932308,0.0034411261,-0.0043839007,9.8868752,-0.39768699,0.79096502,0.73483902,-0.021343,-0.677903,0.001729,-0.39889047,-1.4838894,0.37112425
2418713724768,1.1450493,0,,0.0061238193,0.0038134745,-0.004623953,9.9910631,-0.178874,0.85108101,0.73484701,-0.021328,-0.677894,0.001731,-0.39859009,-1.4838749,0.37084928
2418715565184,1.1468897,0,,0.0061238193,0.0038134745,-0.004623953,9.9910631,-0.178874,0.85108101,0.73484701,-0.021328,-0.677894,0.001731,-0.39859009,-1.4838749,0.37084928
2418717573536,1.1488981,0,,0.0074202846,-0.0011157367,-0.0053805882,9.8401833,-0.38742501,0.843027,0.73485202,-0.021304,-0.67788899,0.0017190001,-0.39798582,-1.4838797,0.37026168
2418719563840,1.1508884,0,,0.0074202846,-0.0011157367,-0.0053805882,9.8401833,-0.38742501,0.843027,0.73485202,-0.021304,-0.67788899,0.0017190001,-0.39798582,-1.4838797,0.37026168
2418721564736,1.1528893,0,,0.0074202846,-0.0011157367,-0.0053805882,9.8401833,-0.38742501,0.843027,0.73485202,-0.021304,-0.67788899,0.0017190001,-0.39798582,-1.4838797,0.37026168
2418723658912,1.1549835,0,,0.002188643,-0.00084269731,-0.006800012,9.8049583,-0.392012,0.711604,0.73485297,-0.021287,-0.67788899,0.001717,-0.3976755,-1.4838877,0.3699727
2418725613888,1.1569384,0,,0.002188643,-0.00084269731,-0.006800012,9.8049583,-0.392012,0.711604,0.73485297,-0.021287,-0.67788899,0.001717,-0.3976755,-1.4838877,0.3699727
2418727571968,1.1588965,0,,0.0033958347,-0.0039594714,-0.006361289,9.7014675,-0.26545599,0.723683,0.73484701,-0.021272,-0.67789602,0.001712,-0.39743967,-1.4839194,0.36975076
2418729562560,1.1608871,0,,0.0033958347,-0.0039594714,-0.006361289,9.7014675,-0.26545599,0.723683,0.73484701,-0.021272,-0.67789602,0.001712,-0.39743967,-1.4839194,0.36975076
2418731564224,1.1628888,0,,0.0033958347,-0.0039594714,-0.006361289,9.7014675,-0.26545599,0.723683,0.73484701,-0.021272,-0.67789602,0.001712,-0.39743967,-1.4839194,0.36975076
2418733750368,1.1650749,0,,0.0031107701,-0.0021302092,-0.011070798,9.7707157,-0.35425001,0.79674298,0.73484099,-0.021245999,-0.677903,0.001698,-0.39691513,-1.4839544,0.36924159
2418735555200,1.1668797,0,,0.0031107701,-0.0021302092,-0.011070798,9.7707157,-0.35425001,0.79674298,0.73484099,-0.021245999,-0.677903,0.001698,-0.39691513,-1.4839544,0.36924159
2418737552704,1.1688772,0,,-0.0014758678,-0.0012026715,-0.011036119,9.8065367,-0.226614,0.74014097,0.73483998,-0.021229999,-0.67790502,0.001677,-0.39637474,-1.4839806,0.36869634
2418739551776,1.1708763,0,,-0.0014758678,-0.0012026715,-0.011036119,9.8065367,-0.226614,0.74014097,0.73483998,-0.021229999,-0.67790502,0.001677,-0.39637474,-1.4839806,0.36869634
2418741549856,1.1728744,0,,-0.0014758678,-0.0012026715,-0.011036119,9.8065367,-0.226614,0.74014097,0.73483998,-0.021229999,-0.67790502,0.001677,-0.39637474,-1.4839806,0.36869634
2418743548800,1.1748733,0,,-0.0042083552,-0.0034811463,-0.0082739775,9.6968336,-0.277931,0.75466102,0.73483497,-0.021215999,-0.67791098,0.001647,-0.39577783,-1.4840131,0.36807689
2418745549952,1.1768745,0,,-0.0042083552,-0.0034811463,-0.0082739775,9.6968336,-0.277931,0.75466102,0.73483497,-0.021215999,-0.67791098,0.001647,-0.39577783,-1.4840131,0.36807689
2418747546848,1.1788714,0,,-0.0048261322,-0.004807684,-0.010543429,9.7504492,-0.32618001,0.79707199,0.73482597,-0.021209,-0.677921,0.001617,-0.3953689,-1.4840633,0.36763431
2418749547296,1.1808718,0,,-0.0048261322,-0.004807684,-0.010543429,9.7504492,-0.32618001,0.79707199,0.73482597,-0.021209,-0.677921,0.001617,-0.3953689,-1.4840633,0.36763431
2418751557024,1.1828816,0,,-0.0048261322,-0.004807684,-0.010543429,9.7504492,-0.32618001,0.79707199,0.73482597,-0.021209,-0.677921,0.001617,-0.3953689,-1.4840633,0.36763431
2418753636000,1.1849605,0,,0.0037691084,-0.00099729856,-0.012102113,9.7937937,-0.244425,0.722422,0.734824,-0.021189,-0.67792398,0.001592,-0.39470717,-1.4840894,0.36696492
2418755576480,1.186901,0,,0.0037691084,-0.00099729856,-0.012102113,9.7937937,-0.244425,0.722422,0.734824,-0.021189,-0.67792398,0.001592,-0.39470717,-1.4840894,0.36696492
2418757584448,1.188909,0,,0.0029256432,-0.0012864647,-0.0055842332,9.7414112,-0.40590301,0.74823701,0.73482102,-0.021168999,-0.67792797,0.001576,-0.39419574,-1.4841182,0.36645955
2418759575904,1.1909004,0,,0.0029256432,-0.0012864647,-0.0055842332,9.7414112,-0.40590301,0.74823701,0.73482102,-0.021168999,-0.67792797,0.001576,-0.39419574,-1.4841182,0.36645955
2418761573120,1.1928977,0,,0.0029256432,-0.0012864647,-0.0055842332,9.7414112,-0.40590301,0.74823701,0.73482102,-0.021168999,-0.67792797,0.001576,-0.39419574,-1.4841182,0.36645955
2418763612000,1.1949365,0,,0.0010660296,-0.0021284814,-0.0037102208,9.8180141,-0.211457,0.87690502,0.73481798,-0.021157,-0.67793101,0.001573,-0.39401032,-1.4841328,0.36628801
2418765609856,1.1969344,0,,0.0010660296,-0.0021284814,-0.0037102208,9.8180141,-0.211457,0.87690502,0.73481798,-0.021157,-0.67793101,0.001573,-0.39401032,-1.4841328,0.36628801
2418767571008,1.1988956,0,,0.0022809358,-0.005437608,-0.0034939222,9.7835245,-0.284922,0.77053398,0.734815,-0.021152001,-0.677935,0.001557,-0.39373196,-1.4841548,0.3659941
2418769568512,1.2008931,0,,0.0022809358,-0.005437608,-0.0034939222,9.7835245,-0.284922,0.77053398,0.734815,-0.021152001,-0.677935,0.001557,-0.39373196,-1.4841548,0.3659941
2418771565280,1.2028898,0,,0.0022809358,-0.005437608,-0.0034939222,9.7835245,-0.284922,0.77053398,0.734815,-0.021152001,-0.677935,0.001557,-0.39373196,-1.4841548,0.3659941
2418773721920,1.2050465,0,,-0.0009879262,0.0017105623,-0.0061126491,9.6736584,-0.57342303,0.76358402,0.73481101,-0.02114,-0.677939,0.001543,-0.39339407,-1.4841779,0.36565202
2418775562944,1.2068875,0,,-0.0009879262,0.0017105623,-0.0061126491,9.6736584,-0.57342303,0.76358402,0.73481101,-0.02114,-0.677939,0.001543,-0.39339407,-1.4841779,0.36565202
2418777559968,1.2088845,0,,0.00047333329,0.0015667297,-0.0076098627,9.8453007,-0.348086,0.807289,0.73481601,-0.021135001,-0.67793399,0.001547,-0.3933156,-1.4841665,0.36558687
2418779589952,1.2109145,0,,0.00047333329,0.0015667297,-0.0076098627,9.8453007,-0.348086,0.807289,0.73481601,-0.021135001,-0.67793399,0.001547,-0.3933156,-1.4841665,0.36558687
2418781563200,1.2128877,0,,0.00047333329,0.0015667297,-0.0076098627,9.8453007,-0.348086,0.807289,0.73481601,-0.021135001,-0.67793399,0.001547,-0.3933156,-1.4841665,0.36558687
2418783551808,1.2148764,0,,-0.0021353579,-0.0038142425,-0.0073911204,9.7864237,-0.32395601,0.80967098,0.734815,-0.021122999,-0.67793602,0.001528,-0.39285794,-1.4841886,0.36511889
2418785550112,1.2168747,0,,-0.0021353579,-0.0038142425,-0.0073911204,9.7864237,-0.32395601,0.80967098,0.734815,-0.021122999,-0.67793602,0.001528,-0.39285794,-1.4841886,0.36511889
2418787548512,1.2188731,0,,-0.001453964,-0.003471198,-0.0026171911,9.8193512,-0.31146699,0.82687497,0.73480999,-0.021121001,-0.67794102,0.001513,-0.3926866,-1.4842091,0.3649293
2418789579712,1.2209043,0,,-0.001453964,-0.003471198,-0.0026171911,9.8193512,-0.31146699,0.82687497,0.73480999,-0.021121001,-0.67794102,0.001513,-0.3926866,-1.4842091,0.3649293
2418791591200,1.2229157,0,,-0.001453964,-0.003471198,-0.0026171911,9.8193512,-0.31146699,0.82687497,0.73480999,-0.021121001,-0.67794102,0.001513,-0.3926866,-1.4842091,0.3649293
2418794020736,1.2253453,0,,-0.0077701361,-0.002534637,-0.0080149185,9.8021421,-0.43694699,0.81448901,0.73480898,-0.021120001,-0.67794299,0.001493,-0.39239155,-1.4842251,0.36460739
2418795547680,1.2268722,0,,-0.0077701361,-0.002534637,-0.0080149185,9.8021421,-0.43694699,0.81448901,0.73480898,-0.021120001,-0.67794299,0.001493,-0.39239155,-1.4842251,0.36460739
2418797553376,1.2288779,0,,-0.0057992928,-0.0049847827,-0.009933698,9.7655935,-0.42534301,0.818326,0.73480302,-0.021122999,-0.67795002,0.001469,-0.39215903,-1.484254,0.36433755
2418799542144,1.2308667,0,,-0.0057992928,-0.0049847827,-0.009933698,9.7655935,-0.42534301,0.818326,0.73480302,-0.021122999,-0.67795002,0.001469,-0.39215903,-1.484254,0.36433755
2418801539616,1.2328642,0,,-0.0057992928,-0.0049847827,-0.009933698,9.7655935,-0.42534301,0.818326,0.73480302,-0.021122999,-0.67795002,0.001469,-0.39215903,-1.484254,0.36433755
2418803574080,1.2348986,0,,0.00065142669,-0.0035693204,-0.0071574904,9.8104496,-0.259758,0.82576197,0.73479903,-0.021113999,-0.67795402,0.001451,-0.39181465,-1.4842767,0.36398105
2418805535552,1.2368601,0,,0.00065142669,-0.0035693204,-0.0071574904,9.8104496,-0.259758,0.82576197,0.73479903,-0.021113999,-0.67795402,0.001451,-0.39181465,-1.4842767,0.36398105
2418807540704,1.2388652,0,,0.0004333478,-0.0060365701,-0.0088740741,9.8222675,-0.26329899,0.85774797,0.73479402,-0.021097999,-0.67795998,0.001432,-0.39135931,-1.4843091,0.36352096
2418809530976,1.2408555,0,,0.0004333478,-0.0060365701,-0.0088740741,9.8222675,-0.26329899,0.85774797,0.73479402,-0.021097999,-0.67795998,0.001432,-0.39135931,-1.4843091,0.36352096
2418811531328,1.2428559,0,,0.0004333478,-0.0060365701,-0.0088740741,9.8222675,-0.26329899,0.85774797,0.73479402,-0.021097999,-0.67795998,0.001432,-0.39135931,-1.4843091,0.36352096
2418813596672,1.2449212,0,,-0.0010075088,-0.0022065499,-0.0087083901,9.8065777,-0.397214,0.80621701,0.73479003,-0.021085,-0.67796397,0.001406,-0.39081906,-1.4843431,0.36296226
2418815564576,1.2468891,0,,-0.0010075088,-0.0022065499,-0.0087083901,9.8065777,-0.397214,0.80621701,0.73479003,-0.021085,-0.67796397,0.001406,-0.39081906,-1.4843431,0.36296226
2418817563488,1.248888,0,,-0.0058801187,-0.00029337239,-0.0075760031,9.7867517,-0.35771099,0.80562699,0.73479003,-0.02108,-0.67796397,0.00139,-0.39050211,-1.48435,0.362629
2418819561152,1.2508857,0,,-0.0058801187,-0.00029337239,-0.0075760031,9.7867517,-0.35771099,0.80562699,0.73479003,-0.02108,-0.67796397,0.00139,-0.39050211,-1.48435,0.362629
2418821560576,1.2528851,0,,-0.0058801187,-0.00029337239,-0.0075760031,9.7867517,-0.35771099,0.80562699,0.73479003,-0.02108,-0.67796397,0.00139,-0.39050211,-1.48435,0.362629
2418823561856,1.2548864,0,,-0.0077859663,-0.0023588299,-0.007650092,9.8203564,-0.33571199,0.79771698,0.73479003,-0.021082999,-0.67796499,0.001366,-0.39019841,-1.484363,0.36228775
2418825557088,1.2568816,0,,-0.0077859663,-0.0023588299,-0.007650092,9.8203564,-0.33571199,0.79771698,0.73479003,-0.021082999,-0.67796499,0.001366,-0.39019841,-1.484363,0.36228775
2418827563520,1.2588881,0,,-0.010634449,-0.005482463,-0.0069448921,9.7662134,-0.442938,0.78587699,0.73478401,-0.021087,-0.67797101,0.001333,-0.38987606,-1.4843927,0.36191284
2418829561984,1.2608865,0,,-0.010634449,-0.005482463,-0.0069448921,9.7662134,-0.442938,0.78587699,0.73478401,-0.021087,-0.67797101,0.001333,-0.38987606,-1.4843927,0.36191284
2418831555552,1.2628801,0,,-0.010634449,-0.005482463,-0.0069448921,9.7662134,-0.442938,0.78587699,0.73478401,-0.021087,-0.67797101,0.001333,-0.38987606,-1.4843927,0.36191284
2418833714400,1.2650389,0,,-0.0042850975,-0.0052851363,-0.0091499235,9.7472773,-0.297252,0.76936102,0.73477602,-0.021090001,-0.67798001,0.001313,-0.38972743,-1.4844223,0.36173105
2418835551328,1.2668759,0,,-0.0042850975,-0.0052851363,-0.0091499235,9.7472773,-0.297252,0.76936102,0.73477602,-0.021090001,-0.67798001,0.001313,-0.38972743,-1.4844223,0.36173105
2418837549696,1.2688742,0,,-0.0011086331,-0.0036304769,-0.0062320471,9.7655001,-0.274129,0.801287,0.73476899,-0.02108,-0.67798698,0.0012910001,-0.38932323,-1.4844597,0.3613098
2418839567392,1.2708919,0,,-0.0011086331,-0.0036304769,-0.0062320471,9.7655001,-0.274129,0.801287,0.73476899,-0.02108,-0.67798698,0.0012910001,-0.38932323,-1.4844597,0.3613098
2418841544928,1.2728695,0,,-0.0011086331,-0.0036304769,-0.0062320471,9.7655001,-0.274129,0.801287,0.73476899,-0.02108,-0.67798698,0.0012910001,-0.38932323,-1.4844597,0.3613098
2418843540928,1.2748655,0,,0.0032829994,-0.0012441754,-0.0050142788,9.7802181,-0.223809,0.80018699,0.73476601,-0.02107,-0.67799097,0.001278,-0.38902805,-1.4844797,0.36101073
2418845543840,1.2768684,0,,0.0032829994,-0.0012441754,-0.0050142788,9.7802181,-0.223809,0.80018699,0.73476601,-0.02107,-0.67799097,0.001278,-0.38902805,-1.4844797,0.36101073
2418847563424,1.278888,0,,0.0051676581,0.0025403966,-0.0057668995,9.7496748,-0.33911899,0.73543,0.73476899,-0.021051001,-0.67798799,0.001265,-0.38849778,-1.4844902,0.36048941
2418849542144,1.2808667,0,,0.0051676581,0.0025403966,-0.0057668995,9.7496748,-0.33911899,0.73543,0.73476899,-0.021051001,-0.67798799,0.001265,-0.38849778,-1.4844902,0.36048941
2418851554400,1.2828789,0,,0.0051676581,0.0025403966,-0.0057668995,9.7496748,-0.33911899,0.73543,0.73476899,-0.021051001,-0.67798799,0.001265,-0.38849778,-1.4844902,0.36048941
2418853745472,1.28507,0,,0.0030449887,-0.00077831214,-0.0052038563,9.7863426,-0.31593499,0.77279502,0.73477101,-0.021032,-0.67798698,0.001263,-0.38814278,-1.4844965,0.36015732
2418855534912,1.2868595,0,,0.0030449887,-0.00077831214,-0.0052038563,9.7863426,-0.31593499,0.77279502,0.73477101,-0.021032,-0.67798698,0.001263,-0.38814278,-1.4844965,0.36015732
2418857534848,1.2888594,0,,-0.0083606333,-0.0020788792,-0.0063842921,9.8231735,-0.301983,0.77076602,0.73476899,-0.021028001,-0.67799002,0.001242,-0.38780586,-1.4845158,0.35979789
2418859566848,1.2908914,0,,-0.0083606333,-0.0020788792,-0.0063842921,9.8231735,-0.301983,0.77076602,0.73476899,-0.021028001,-0.67799002,0.001242,-0.38780586,-1.4845158,0.35979789
2418861576128,1.2929007,0,,-0.0083606333,-0.0020788792,-0.0063842921,9.8231735,-0.301983,0.77076602,0.73476899,-0.021028001,-0.67799002,0.001242,-0.38780586,-1.4845158,0.35979789
2418863564224,1.2948888,0,,-0.0023508188,-0.0032025396,-0.0058259791,9.890336,-0.300212,0.76533198,0.73476398,-0.021028001,-0.67799503,0.001217,-0.38750209,-1.4845428,0.35945721
2418865563456,1.296888,0,,-0.0023508188,-0.0032025396,-0.0058259791,9.890336,-0.300212,0.76533198,0.73476398,-0.021028001,-0.67799503,0.001217,-0.38750209,-1.4845428,0.35945721
2418867561696,1.2988862,0,,0.0012133528,-0.0058853374,-0.0053803963,9.8127565,-0.27759999,0.80927402,0.73475599,-0.021018,-0.67800403,0.001205,-0.38727542,-1.4845788,0.35922821
2418869558656,1.3008832,0,,0.0012133528,-0.0058853374,-0.0053803963,9.8127565,-0.27759999,0.80927402,0.73475599,-0.021018,-0.67800403,0.001205,-0.38727542,-1.4845788,0.35922821
2418871556608,1.3028812,0,,0.0012133528,-0.0058853374,-0.0053803963,9.8127565,-0.27759999,0.80927402,0.73475599,-0.021018,-0.67800403,0.001205,-0.38727542,-1.4845788,0.35922821
2418873595680,1.3049202,0,,-0.0017802882,-0.001077671,-0.010492187,9.8416996,-0.35192001,0.79912198,0.734752,-0.021005999,-0.67800897,0.001186,-0.38684545,-1.484603,0.35878845
2418875555936,1.3068805,0,,-0.0017802882,-0.001077671,-0.010492187,9.8416996,-0.35192001,0.79912198,0.734752,-0.021005999,-0.67800897,0.001186,-0.38684545,-1.484603,0.35878845
2418877557376,1.3088819,0,,0.0001727876,0.001947962,-0.010168236,9.7159853,-0.46246299,0.741705,0.73475301,-0.020989999,-0.67800802,0.001164,-0.38625773,-1.4846211,0.3581922
2418879553984,1.3108785,0,,0.0001727876,0.001947962,-0.010168236,9.7159853,-0.46246299,0.741705,0.73475301,-0.020989999,-0.67800802,0.001164,-0.38625773,-1.4846211,0.3581922
2418881566592,1.3128911,0,,0.0001727876,0.001947962,-0.010168236,9.7159853,-0.46246299,0.741705,0.73475301,-0.020989999,-0.67800802,0.001164,-0.38625773,-1.4846211,0.3581922
2418883563072,1.3148876,0,,0.0001727876,0.001947962,-0.010168236,9.7159853,-0.46246299,0.741705,0.73475301,-0.020989999,-0.67800802,0.001164,-0.38625773,-1.4846211,0.3581922
2418885561824,1.3168864,0,,0.0001727876,0.001947962,-0.010168236,9.7159853,-0.46246299,0.741705,0.73475301,-0.020989999,-0.67800802,0.001164,-0.38625773,-1.4846211,0.3581922
2418887590848,1.3189154,0,,-0.008140303,-0.0033135251,-0.0039154018,9.7382841,-0.24251901,0.85316098,0.73474503,-0.02098,-0.67801702,0.001122,-0.3855965,-1.4846694,0.35748627
2418889553760,1.3208783,0,,-0.008140303,-0.0033135251,-0.0039154018,9.7382841,-0.24251901,0.85316098,0.73474503,-0.02098,-0.67801702,0.001122,-0.3855965,-1.4846694,0.35748627
2418891552544,1.3228771,0,,-0.008140303,-0.0033135251,-0.0039154018,9.7382841,-0.24251901,0.85316098,0.73474503,-0.02098,-0.67801702,0.001122,-0.3855965,-1.4846694,0.35748627
2418893779456,1.325104,0,,-0.0002746799,0.00044348817,-0.00076005597,9.6556244,-0.309807,0.80685502,0.73474801,-0.020985,-0.67801398,0.001102,-0.38535918,-1.4846701,0.35721303
2418895547232,1.3268718,0,,-0.0002746799,0.00044348817,-0.00076005597,9.6556244,-0.309807,0.80685502,0.73474801,-0.020985,-0.67801398,0.001102,-0.38535918,-1.4846701,0.35721303
2418897543968,1.3288685,0,,-0.00048816858,-0.0014722724,-0.0013742199,9.6984377,-0.401954,0.76627201,0.73474997,-0.020986,-0.678011,0.001096,-0.38524516,-1.4846666,0.35708985
2418899545728,1.3308703,0,,-0.00048816858,-0.0014722724,-0.0013742199,9.6984377,-0.401954,0.76627201,0.73474997,-0.020986,-0.678011,0.001096,-0.38524516,-1.4846666,0.35708985
2418901543168,1.3328677,0,,-0.00048816858,-0.0014722724,-0.0013742199,9.6984377,-0.401954,0.76627201,0.73474997,-0.020986,-0.678011,0.001096,-0.38524516,-1.4846666,0.35708985
2418903536928,1.3348615,0,,-0.0026158996,8.3217298e-05,-0.0026881212,9.7602472,-0.380292,0.83520198,0.73474997,-0.020986,-0.678011,0.001095,-0.3852385,-1.4846666,0.3570818
2418905539296,1.3368638,0,,-0.0026158996,8.3217298e-05,-0.0026881212,9.7602472,-0.380292,0.83520198,0.73474997,-0.020986,-0.678011,0.001095,-0.3852385,-1.4846666,0.3570818
2418907536672,1.3388612,0,,-0.00091507613,-0.0015444419,-0.0045623081,9.8134766,-0.32773599,0.82394701,0.73475099,-0.020989001,-0.67800999,0.001085,-0.3851139,-1.484666,0.35693902
