t_recv_ns,t_s,t_stamp_ns,frame_id,angular_velocity.x,angular_velocity.y,angular_velocity.z,linear_acceleration.x,linear_acceleration.y,linear_acceleration.z,quaternion.w,quaternion.x,quaternion.y,quaternion.z,rpy.x,rpy.y,rpy.z
3410001810368,0,0,,0.0009768259,-0.0022097961,0.0018242007,9.7938099,-0.39673701,1.0009151,0.73935801,-0.080270998,-0.665887,-0.059145,-0.37887631,-1.4626315,0.18109922
3410003811424,0.002001056,0,,0.0009768259,-0.0022097961,0.0018242007,9.7938099,-0.39673701,1.0009151,0.73935801,-0.080270998,-0.665887,-0.059145,-0.37887631,-1.4626315,0.18109922
3410007933664,0.006123296,0,,0.0009768259,-0.0022097961,0.0018242007,9.7938099,-0.39673701,1.0009151,0.73935801,-0.080270998,-0.665887,-0.059145,-0.37887631,-1.4626315,0.18109922
3410007985568,0.0061752,0,,0.0015293273,-0.0043937269,0.00079025021,9.742403,-0.406286,0.98597598,0.739353,-0.080271997,-0.66589302,-0.059142999,-0.37894938,-1.4626431,0.1811735
3410009831104,0.008020736,0,,0.0015293273,-0.0043937269,0.00079025021,9.742403,-0.406286,0.98597598,0.739353,-0.080271997,-0.66589302,-0.059142999,-0.37894938,-1.4626431,0.1811735
3410011789600,0.009979232,0,,0.0015293273,-0.0043937269,0.00079025021,9.742403,-0.406286,0.98597598,0.739353,-0.080271997,-0.66589302,-0.059142999,-0.37894938,-1.4626431,0.1811735
3410013784672,0.011974304,0,,0.0011511493,0.0003404963,0.00021804399,9.7590227,-0.41857901,0.99224699,0.73935097,-0.080274001,-0.66589499,-0.059142001,-0.3790121,-1.4626488,0.18123579
3410015684256,0.013873888,0,,0.0011511493,0.0003404963,0.00021804399,9.7590227,-0.41857901,0.99224699,0.73935097,-0.080274001,-0.66589499,-0.059142001,-0.3790121,-1.4626488,0.18123579
3410017788512,0.015978144,0,,-0.0006627015,0.0032806954,0.001218746,9.7242355,-0.43525898,0.98093599,0.73935699,-0.080274999,-0.66588902,-0.059142999,-0.37895943,-1.4626322,0.18117969
3410019828160,0.018017792,0,,-0.0006627015,0.0032806954,0.001218746,9.7242355,-0.43525898,0.98093599,0.73935699,-0.080274999,-0.66588902,-0.059142999,-0.37895943,-1.4626322,0.18117969
3410021760064,0.019949696,0,,-0.0006627015,0.0032806954,0.001218746,9.7242355,-0.43525898,0.98093599,0.73935699,-0.080274999,-0.66588902,-0.059142999,-0.37895943,-1.4626322,0.18117969
3410023783456,0.021973088,0,,0.0013683906,-0.0012763418,-0.00043259729,9.7403698,-0.40747601,0.9993,0.73936099,-0.080278002,-0.66588497,-0.059140999,-0.37899639,-1.4626194,0.18121586
3410025784000,0.023973632,0,,0.0013683906,-0.0012763418,-0.00043259729,9.7403698,-0.40747601,0.9993,0.73936099,-0.080278002,-0.66588497,-0.059140999,-0.37899639,-1.4626194,0.18121586
3410027816608,0.02600624,0,,0.00061409406,-0.0058881301,-0.0019685394,9.7479477,-0.40131599,0.99652201,0.73935598,-0.080277003,-0.66588998,-0.059142999,-0.37899535,-1.4626339,0.18121272
3410029867552,0.028057184,0,,0.00061409406,-0.0058881301,-0.0019685394,9.7479477,-0.40131599,0.99652201,0.73935598,-0.080277003,-0.66588998,-0.059142999,-0.37899535,-1.4626339,0.18121272
3410031785184,0.029974816,0,,0.00061409406,-0.0058881301,-0.0019685394,9.7479477,-0.40131599,0.99652201,0.73935598,-0.080277003,-0.66588998,-0.059142999,-0.37899535,-1.4626339,0.18121272
3410033782656,0.031972288,0,,0.0024766745,-0.0015791215,-0.0019797444,9.7689953,-0.44159201,0.97571099,0.73935002,-0.080271997,-0.665896,-0.059145,-0.37895611,-1.462652,0.18117868
3410035810464,0.034000096,0,,0.0024766745,-0.0015791215,-0.0019797444,9.7689953,-0.44159201,0.97571099,0.73935002,-0.080271997,-0.665896,-0.059145,-0.37895611,-1.462652,0.18117868
3410037812640,0.036002272,0,,0.0082558961,0.0021461965,0.00049253191,9.795577,-0.374008,1.013431,0.739353,-0.080264002,-0.66589499,-0.059137002,-0.37891576,-1.4626488,0.18116113
3410039869312,0.038058944,0,,0.0082558961,0.0021461965,0.00049253191,9.795577,-0.374008,1.013431,0.739353,-0.080264002,-0.66589499,-0.059137002,-0.37891576,-1.4626488,0.18116113
3410041804256,0.039993888,0,,0.0082558961,0.0021461965,0.00049253191,9.795577,-0.374008,1.013431,0.739353,-0.080264002,-0.66589499,-0.059137002,-0.37891576,-1.4626488,0.18116113
3410043805920,0.041995552,0,,0.0023496147,0.0039870476,-0.00078791142,9.8330698,-0.39394999,0.98038399,0.73936099,-0.080254003,-0.66588801,-0.059131999,-0.37879868,-1.4626299,0.18106574
3410045802368,0.043992,0,,0.0023496147,0.0039870476,-0.00078791142,9.8330698,-0.39394999,0.98038399,0.73936099,-0.080254003,-0.66588801,-0.059131999,-0.37879868,-1.4626299,0.18106574
3410047800288,0.04598992,0,,0.003272562,-0.0010844778,0.00072541121,9.8301449,-0.39531898,0.97631001,0.73936397,-0.080250002,-0.66588497,-0.059129998,-0.37875194,-1.4626222,0.18102701
3410049801536,0.047991168,0,,0.003272562,-0.0010844778,0.00072541121,9.8301449,-0.39531898,0.97631001,0.73936397,-0.080250002,-0.66588497,-0.059129998,-0.37875194,-1.4626222,0.18102701
3410051799168,0.0499888,0,,-0.0012274901,-0.0043844942,-0.0013483366,9.7716036,-0.38162801,0.98925,0.73936099,-0.080247998,-0.66588902,-0.059129,-0.3787577,-1.4626322,0.18103613
3410053794944,0.051984576,0,,-0.0012274901,-0.0043844942,-0.0013483366,9.7716036,-0.38162801,0.98925,0.73936099,-0.080247998,-0.66588902,-0.059129,-0.3787577,-1.4626322,0.18103613
3410055825568,0.0540152,0,,-0.0012274901,-0.0043844942,-0.0013483366,9.7716036,-0.38162801,0.98925,0.73936099,-0.080247998,-0.66588902,-0.059129,-0.3787577,-1.4626322,0.18103613
3410057797920,0.055987552,0,,-0.0032549342,-0.0065020324,-0.00069390801,9.7589493,-0.38274899,0.97618002,0.73935199,-0.080252998,-0.66589803,-0.059138,-0.37878643,-1.4626575,0.18104609
3410059844096,0.058033728,0,,-0.0032549342,-0.0065020324,-0.00069390801,9.7589493,-0.38274899,0.97618002,0.73935199,-0.080252998,-0.66589803,-0.059138,-0.37878643,-1.4626575,0.18104609
3410061801024,0.059990656,0,,-0.0032549342,-0.0065020324,-0.00069390801,9.7589493,-0.38274899,0.97618002,0.73935199,-0.080252998,-0.66589803,-0.059138,-0.37878643,-1.4626575,0.18104609
3410063820992,0.062010624,0,,0.0047873161,-0.0031672665,0.00095497433,9.7443638,-0.36377499,0.97788399,0.739344,-0.080254003,-0.66590703,-0.059136,-0.37887321,-1.4626828,0.1811341
3410065812256,0.064001888,0,,0.0047873161,-0.0031672665,0.00095497433,9.7443638,-0.36377499,0.97788399,0.739344,-0.080254003,-0.66590703,-0.059136,-0.37887321,-1.4626828,0.1811341
3410067797088,0.06598672,0,,-9.5190259e-05,-0.0016108168,0.00044943974,9.7582531,-0.37019801,0.97691399,0.73934197,-0.080250002,-0.66590899,-0.059133001,-0.3788842,-1.4626857,0.18115468
3410069787264,0.067976896,0,,-9.5190259e-05,-0.0016108168,0.00044943974,9.7582531,-0.37019801,0.97691399,0.73934197,-0.080250002,-0.66590899,-0.059133001,-0.3788842,-1.4626857,0.18115468
3410071856384,0.070046016,0,,-9.5190259e-05,-0.0016108168,0.00044943974,9.7582531,-0.37019801,0.97691399,0.73934197,-0.080250002,-0.66590899,-0.059133001,-0.3788842,-1.4626857,0.18115468
3410073831904,0.072021536,0,,0.0062476157,0.0012954881,-0.0021929363,9.7413921,-0.38489199,0.97094202,0.73934197,-0.080245003,-0.66591001,-0.059133001,-0.37881496,-1.4626885,0.18109346
3410075781280,0.073970912,0,,0.0062476157,0.0012954881,-0.0021929363,9.7413921,-0.38489199,0.97094202,0.73934197,-0.080245003,-0.66591001,-0.059133001,-0.37881496,-1.4626885,0.18109346
3410077788672,0.075978304,0,,0.0034391714,0.0016135569,-0.0023390903,9.7671928,-0.35465398,0.97380298,0.73934603,-0.080233,-0.66590703,-0.059133999,-0.37862308,-1.4626857,0.18091717
3410079833888,0.07802352,0,,0.0034391714,0.0016135569,-0.0023390903,9.7671928,-0.35465398,0.97380298,0.73934603,-0.080233,-0.66590703,-0.059133999,-0.37862308,-1.4626857,0.18091717
3410081793024,0.079982656,0,,0.0034391714,0.0016135569,-0.0023390903,9.7671928,-0.35465398,0.97380298,0.73934603,-0.080233,-0.66590703,-0.059133999,-0.37862308,-1.4626857,0.18091717
3410083780416,0.081970048,0,,0.0041905529,-0.00035295792,0.00061355304,9.768486,-0.37466201,0.972884,0.73934698,-0.080223002,-0.66590798,-0.059129,-0.37854468,-1.4626873,0.1808586
3410085779008,0.08396864,0,,0.0041905529,-0.00035295792,0.00061355304,9.768486,-0.37466201,0.972884,0.73934698,-0.080223002,-0.66590798,-0.059129,-0.37854468,-1.4626873,0.1808586
3410087777024,0.085966656,0,,-0.00038882444,-0.00094364718,0.00019924679,9.7992144,-0.38927901,0.98607898,0.73934799,-0.080219999,-0.66590601,-0.059126999,-0.37851625,-1.4626828,0.18083891
3410089783232,0.087972864,0,,-0.00038882444,-0.00094364718,0.00019924679,9.7992144,-0.38927901,0.98607898,0.73934799,-0.080219999,-0.66590601,-0.059126999,-0.37851625,-1.4626828,0.18083891
3410091770048,0.08995968,0,,-0.00038882444,-0.00094364718,0.00019924679,9.7992144,-0.38927901,0.98607898,0.73934799,-0.080219999,-0.66590601,-0.059126999,-0.37851625,-1.4626828,0.18083891
3410093814208,0.09200384,0,,-0.0050619259,-0.0038702326,-0.0015814428,9.7869625,-0.36157799,0.99525201,0.739344,-0.080224,-0.66591001,-0.059137002,-0.37847907,-1.4626977,0.18078267
3410095916096,0.094105728,0,,-0.0050619259,-0.0038702326,-0.0015814428,9.7869625,-0.36157799,0.99525201,0.739344,-0.080224,-0.66591001,-0.059137002,-0.37847907,-1.4626977,0.18078267
3410097813728,0.09600336,0,,-0.0053400094,-0.004960976,0.001657417,9.7755613,-0.41216499,0.96905702,0.73933703,-0.080237001,-0.66591603,-0.059147999,-0.37857391,-1.4627138,0.18084234
3410099863936,0.098053568,0,,-0.0053400094,-0.004960976,0.001657417,9.7755613,-0.41216499,0.96905702,0.73933703,-0.080237001,-0.66591603,-0.059147999,-0.37857391,-1.4627138,0.18084234
3410101816448,0.10000608,0,,-0.0053400094,-0.004960976,0.001657417,9.7755613,-0.41216499,0.96905702,0.73933703,-0.080237001,-0.66591603,-0.059147999,-0.37857391,-1.4627138,0.18084234
3410103811904,0.10200154,0,,0.0028837551,-0.0039148783,0.00042956044,9.7982645,-0.42449701,0.98597598,0.73932898,-0.080246001,-0.665923,-0.059149001,-0.37872511,-1.4627298,0.18097936
3410105811328,0.10400096,0,,0.0028837551,-0.0039148783,0.00042956044,9.7982645,-0.42449701,0.98597598,0.73932898,-0.080246001,-0.665923,-0.059149001,-0.37872511,-1.4627298,0.18097936
3410107791104,0.10598074,0,,0.0055301804,-0.00051157345,0.00038611918,9.7674379,-0.42508,0.998932,0.73932803,-0.080241002,-0.66592503,-0.05914,-0.37879119,-1.4627327,0.18106559
3410109817216,0.10800685,0,,0.0055301804,-0.00051157345,0.00038611918,9.7674379,-0.42508,0.998932,0.73932803,-0.080241002,-0.66592503,-0.05914,-0.37879119,-1.4627327,0.18106559
3410111782560,0.10997219,0,,0.0055301804,-0.00051157345,0.00038611918,9.7674379,-0.42508,0.998932,0.73932803,-0.080241002,-0.66592503,-0.05914,-0.37879119,-1.4627327,0.18106559
3410113784000,0.11197363,0,,-0.00034794882,-0.0031800073,0.00065591219,9.7610292,-0.43331799,1.005408,0.73932803,-0.080241002,-0.66592598,-0.059133999,-0.37885178,-1.4627304,0.18113339
3410115775520,0.11396515,0,,-0.00034794882,-0.0031800073,0.00065591219,9.7610292,-0.43331799,1.005408,0.73932803,-0.080241002,-0.66592598,-0.059133999,-0.37885178,-1.4627304,0.18113339
3410117781536,0.11597117,0,,-0.0025275334,-0.0022957713,0.0012311553,9.727602,-0.42776,0.982925,0.73932499,-0.080251001,-0.66592801,-0.059136,-0.37897335,-1.4627336,0.18123847
3410119938976,0.11812861,0,,-0.0025275334,-0.0022957713,0.0012311553,9.727602,-0.42776,0.982925,0.73932499,-0.080251001,-0.66592801,-0.059136,-0.37897335,-1.4627336,0.18123847
3410121773408,0.11996304,0,,-0.0025275334,-0.0022957713,0.0012311553,9.727602,-0.42776,0.982925,0.73932499,-0.080251001,-0.66592801,-0.059136,-0.37897335,-1.4627336,0.18123847
3410123774912,0.12196454,0,,0.003917601,0.0016653408,-0.0024461663,9.743825,-0.40449801,1.014008,0.739326,-0.080252998,-0.66592598,-0.05914,-0.37894818,-1.4627327,0.18120476
3410125770720,0.12396035,0,,0.003917601,0.0016653408,-0.0024461663,9.743825,-0.40449801,1.014008,0.739326,-0.080252998,-0.66592598,-0.05914,-0.37894818,-1.4627327,0.18120476
3410127769152,0.12595878,0,,0.0071683116,-0.00090142762,0.00058564525,9.7517567,-0.387207,1.008677,0.73932898,-0.080241002,-0.66592401,-0.059133999,-0.37883683,-1.4627276,0.18111941
3410129788832,0.12797846,0,,0.0071683116,-0.00090142762,0.00058564525,9.7517567,-0.387207,1.008677,0.73932898,-0.080241002,-0.66592401,-0.059133999,-0.37883683,-1.4627276,0.18111941
3410131766528,0.12995616,0,,0.0011020532,-0.0061905258,0.0018509915,9.7991543,-0.402017,0.99231702,0.73932701,-0.080234997,-0.66592801,-0.059128001,-0.37887112,-1.4627354,0.18117039
3410133779712,0.13196934,0,,0.0011020532,-0.0061905258,0.0018509915,9.7991543,-0.402017,0.99231702,0.73932701,-0.080234997,-0.66592801,-0.059128001,-0.37887112,-1.4627354,0.18117039
3410135760928,0.13395056,0,,0.0011020532,-0.0061905258,0.0018509915,9.7991543,-0.402017,0.99231702,0.73932701,-0.080234997,-0.66592801,-0.059128001,-0.37887112,-1.4627354,0.18117039
3410137799392,0.13598902,0,,0.0050862559,-0.0030548148,0.0021350962,9.7766466,-0.39981899,0.99327803,0.73931998,-0.080236003,-0.66593701,-0.059122,-0.37900637,-1.4627559,0.18131435
3410139806304,0.13799594,0,,0.0050862559,-0.0030548148,0.0021350962,9.7766466,-0.39981899,0.99327803,0.73931998,-0.080236003,-0.66593701,-0.059122,-0.37900637,-1.4627559,0.18131435
3410141773088,0.13996272,0,,0.0050862559,-0.0030548148,0.0021350962,9.7766466,-0.39981899,0.99327803,0.73931998,-0.080236003,-0.66593701,-0.059122,-0.37900637,-1.4627559,0.18131435
3410143770432,0.14196006,0,,0.0035940168,0.003791274,9.6324719e-05,9.7813301,-0.39070299,0.98100001,0.73932499,-0.080233,-0.665932,-0.059115998,-0.37899662,-1.4627408,0.18131721
3410145776640,0.14396627,0,,0.0035940168,0.003791274,9.6324719e-05,9.7813301,-0.39070299,0.98100001,0.73932499,-0.080233,-0.665932,-0.059115998,-0.37899662,-1.4627408,0.18131721
3410147760288,0.14594992,0,,0.0061993922,-0.0014844724,0.0024958558,9.7713766,-0.36532399,0.971524,0.73932898,-0.080224998,-0.66592902,-0.059106998,-0.37896599,-1.4627315,0.18131007
3410149768544,0.14795818,0,,0.0061993922,-0.0014844724,0.0024958558,9.7713766,-0.36532399,0.971524,0.73932898,-0.080224998,-0.66592902,-0.059106998,-0.37896599,-1.4627315,0.18131007
3410151755808,0.14994544,0,,0.0061993922,-0.0014844724,0.0024958558,9.7713766,-0.36532399,0.971524,0.73932898,-0.080224998,-0.66592902,-0.059106998,-0.37896599,-1.4627315,0.18131007
3410153788416,0.15197805,0,,0.00025745352,-0.0021931459,0.0023359137,9.8069067,-0.38217199,0.98615402,0.73932701,-0.080223002,-0.665932,-0.059098002,-0.37907052,-1.4627344,0.18142983
3410155783264,0.1539729,0,,0.00025745352,-0.0021931459,0.0023359137,9.8069067,-0.38217199,0.98615402,0.73932701,-0.080223002,-0.665932,-0.059098002,-0.37907052,-1.4627344,0.18142983
3410157783552,0.15597318,0,,-0.0026567927,0.001410418,0.00011512192,9.7945852,-0.395208,0.978706,0.73932803,-0.080228001,-0.66592997,-0.059101999,-0.37907868,-1.4627292,0.18142464
3410159984384,0.15817402,0,,-0.0026567927,0.001410418,0.00011512192,9.7945852,-0.395208,0.978706,0.73932803,-0.080228001,-0.66592997,-0.059101999,-0.37907868,-1.4627292,0.18142464
3410161824000,0.16001363,0,,-0.0026567927,0.001410418,0.00011512192,9.7945852,-0.395208,0.978706,0.73932803,-0.080228001,-0.66592997,-0.059101999,-0.37907868,-1.4627292,0.18142464
3410163803072,0.1619927,0,,0.0027800302,0.00023010421,-0.0027499409,9.7593145,-0.35881498,0.98005199,0.73932999,-0.080225997,-0.66592801,-0.059103999,-0.37900993,-1.4627249,0.18135641
3410165794912,0.16398454,0,,0.0027800302,0.00023010421,-0.0027499409,9.7593145,-0.35881498,0.98005199,0.73932999,-0.080225997,-0.66592801,-0.059103999,-0.37900993,-1.4627249,0.18135641
3410167790848,0.16598048,0,,0.00017886134,-0.0021300522,-0.00020743239,9.7112427,-0.34323001,0.96782297,0.73932999,-0.080220997,-0.66592902,-0.059108999,-0.37889718,-1.462732,0.18124407
3410169793312,0.16798294,0,,0.00017886134,-0.0021300522,-0.00020743239,9.7112427,-0.34323001,0.96782297,0.73932999,-0.080220997,-0.66592902,-0.059108999,-0.37889718,-1.462732,0.18124407
3410171796032,0.16998566,0,,0.00017886134,-0.0021300522,-0.00020743239,9.7112427,-0.34323001,0.96782297,0.73932999,-0.080220997,-0.66592902,-0.059108999,-0.37889718,-1.462732,0.18124407
3410173799680,0.17198931,0,,-0.0018727732,-0.0011778878,0.0024161467,9.7593021,-0.37017101,0.96608102,0.73932701,-0.080224998,-0.66593099,-0.059108999,-0.37895993,-1.4627354,0.18130123
3410175780960,0.17397059,0,,-0.0018727732,-0.0011778878,0.0024161467,9.7593021,-0.37017101,0.96608102,0.73932701,-0.080224998,-0.66593099,-0.059108999,-0.37895993,-1.4627354,0.18130123
3410177785184,0.17597482,0,,-0.0060382283,-0.00047307149,0.00023938936,9.7709799,-0.406104,0.97548902,0.73932499,-0.080233,-0.665932,-0.059115998,-0.37900168,-1.4627392,0.18132109
3410179826080,0.17801571,0,,-0.0060382283,-0.00047307149,0.00023938936,9.7709799,-0.406104,0.97548902,0.73932499,-0.080233,-0.665932,-0.059115998,-0.37900168,-1.4627392,0.18132109
3410181786752,0.17997638,0,,-0.0060382283,-0.00047307149,0.00023938936,9.7709799,-0.406104,0.97548902,0.73932499,-0.080233,-0.665932,-0.059115998,-0.37900168,-1.4627392,0.18132109
3410183779648,0.18196928,0,,-0.0042850452,6.1592671e-05,-0.00011040953,9.7675781,-0.369313,0.98580498,0.73932499,-0.080242999,-0.66592997,-0.059128001,-0.37898653,-1.4627382,0.18127433
3410185783840,0.18397347,0,,-0.0042850452,6.1592671e-05,-0.00011040953,9.7675781,-0.369313,0.98580498,0.73932499,-0.080242999,-0.66592997,-0.059128001,-0.37898653,-1.4627382,0.18127433
3410187783584,0.18597322,0,,-0.0031925736,-0.0019309101,0.0018574841,9.7468348,-0.40484101,0.96743101,0.73932302,-0.080254003,-0.66592997,-0.059137002,-0.37902525,-1.4627398,0.1812852
3410189777024,0.18796666,0,,-0.0031925736,-0.0019309101,0.0018574841,9.7468348,-0.40484101,0.96743101,0.73932302,-0.080254003,-0.66592997,-0.059137002,-0.37902525,-1.4627398,0.1812852
3410191775488,0.18996512,0,,-0.0011293677,-0.0048917042,0.0011173248,9.7644529,-0.38246399,0.99119401,0.73931801,-0.080261998,-0.66593403,-0.059138,-0.37915498,-1.4627488,0.1814031
3410193777952,0.19196758,0,,-0.0011293677,-0.0048917042,0.0011173248,9.7644529,-0.38246399,0.99119401,0.73931801,-0.080261998,-0.66593403,-0.059138,-0.37915498,-1.4627488,0.1814031
3410195829056,0.19401869,0,,-0.0011293677,-0.0048917042,0.0011173248,9.7644529,-0.38246399,0.99119401,0.73931801,-0.080261998,-0.66593403,-0.059138,-0.37915498,-1.4627488,0.1814031
3410197800288,0.19598992,0,,-0.0028231921,-0.0054020381,-0.0014445567,9.7930679,-0.407033,1.008036,0.73930901,-0.080266997,-0.66594303,-0.059145,-0.37919935,-1.4627752,0.18143008
3410199934560,0.19812419,0,,-0.0028231921,-0.0054020381,-0.0014445567,9.7930679,-0.407033,1.008036,0.73930901,-0.080266997,-0.66594303,-0.059145,-0.37919935,-1.4627752,0.18143008
3410201802240,0.19999187,0,,-0.0028231921,-0.0054020381,-0.0014445567,9.7930679,-0.407033,1.008036,0.73930901,-0.080266997,-0.66594303,-0.059145,-0.37919935,-1.4627752,0.18143008
3410203770112,0.20195974,0,,-0.0028231921,-0.0054020381,-0.0014445567,9.7930679,-0.407033,1.008036,0.73930901,-0.080266997,-0.66594303,-0.059145,-0.37919935,-1.4627752,0.18143008
3410205778464,0.2039681,0,,-0.0028231921,-0.0054020381,-0.0014445567,9.7930679,-0.407033,1.008036,0.73930901,-0.080266997,-0.66594303,-0.059145,-0.37919935,-1.4627752,0.18143008
3410207764832,0.20595446,0,,0.0020305858,-0.0044823025,0.0033180628,9.7725716,-0.41998401,0.987804,0.73929602,-0.080275998,-0.66595501,-0.059152998,-0.37931953,-1.4628083,0.18152677
3410209790624,0.20798026,0,,0.0020305858,-0.0044823025,0.0033180628,9.7725716,-0.41998401,0.987804,0.73929602,-0.080275998,-0.66595501,-0.059152998,-0.37931953,-1.4628083,0.18152677
3410211800192,0.20998982,0,,0.0020305858,-0.0044823025,0.0033180628,9.7725716,-0.41998401,0.987804,0.73929602,-0.080275998,-0.66595501,-0.059152998,-0.37931953,-1.4628083,0.18152677
3410213805056,0.21199469,0,,0.0049086163,0.0014290581,-0.0024158673,9.7780561,-0.43397099,0.99371201,0.73929501,-0.080271997,-0.66595799,-0.059145,-0.37937419,-1.4628122,0.18159703
3410215797216,0.21398685,0,,0.0049086163,0.0014290581,-0.0024158673,9.7780561,-0.43397099,0.99371201,0.73929501,-0.080271997,-0.66595799,-0.059145,-0.37937419,-1.4628122,0.18159703
3410217795520,0.21598515,0,,0.0016847489,0.0033952238,-0.0037700158,9.7759314,-0.382323,1.017418,0.73930299,-0.080261998,-0.66595,-0.059147,-0.37916679,-1.4627957,0.18140088
3410219839104,0.21802874,0,,0.0016847489,0.0033952238,-0.0037700158,9.7759314,-0.382323,1.017418,0.73930299,-0.080261998,-0.66595,-0.059147,-0.37916679,-1.4627957,0.18140088
3410221792192,0.21998182,0,,0.0016847489,0.0033952238,-0.0037700158,9.7759314,-0.382323,1.017418,0.73930299,-0.080261998,-0.66595,-0.059147,-0.37916679,-1.4627957,0.18140088
3410223789248,0.22197888,0,,-0.0015870105,0.00090373149,-0.0018036931,9.7130222,-0.41332501,0.98536003,0.73930901,-0.080256999,-0.66594398,-0.059154999,-0.37896439,-1.4627845,0.18119411
3410225792736,0.22398237,0,,-0.0015870105,0.00090373149,-0.0018036931,9.7130222,-0.41332501,0.98536003,0.73930901,-0.080256999,-0.66594398,-0.059154999,-0.37896439,-1.4627845,0.18119411
3410227789088,0.22597872,0,,-0.0074082593,-0.0032520196,0.0038022695,9.7270117,-0.38107899,0.98117799,0.739308,-0.08027,-0.665941,-0.059163,-0.37903314,-1.4627792,0.18123365
3410229814976,0.22800461,0,,-0.0074082593,-0.0032520196,0.0038022695,9.7270117,-0.38107899,0.98117799,0.739308,-0.08027,-0.665941,-0.059163,-0.37903314,-1.4627792,0.18123365
3410231785952,0.22997558,0,,-0.0074082593,-0.0032520196,0.0038022695,9.7270117,-0.38107899,0.98117799,0.739308,-0.08027,-0.665941,-0.059163,-0.37903314,-1.4627792,0.18123365
3410233819168,0.2320088,0,,-0.0074082593,-0.0032520196,0.0038022695,9.7270117,-0.38107899,0.98117799,0.739308,-0.08027,-0.665941,-0.059163,-0.37903314,-1.4627792,0.18123365
3410235815872,0.2340055,0,,-0.0074082593,-0.0032520196,0.0038022695,9.7270117,-0.38107899,0.98117799,0.739308,-0.08027,-0.665941,-0.059163,-0.37903314,-1.4627792,0.18123365
3410237783456,0.23597309,0,,0.0013673782,0.0005388006,0.0029591884,9.7959833,-0.39370999,0.99662298,0.73930699,-0.080291003,-0.66593999,-0.05917,-0.37922012,-1.4627752,0.18138036
3410239830464,0.2380201,0,,0.0013673782,0.0005388006,0.0029591884,9.7959833,-0.39370999,0.99662298,0.73930699,-0.080291003,-0.66593999,-0.05917,-0.37922012,-1.4627752,0.18138036
3410241776608,0.23996624,0,,0.0013673782,0.0005388006,0.0029591884,9.7959833,-0.39370999,0.99662298,0.73930699,-0.080291003,-0.66593999,-0.05917,-0.37922012,-1.4627752,0.18138036
3410243778592,0.24196822,0,,0.002137208,-0.0033791668,0.00043765876,9.7835512,-0.40895,0.97905099,0.73930699,-0.080292001,-0.665941,-0.059165001,-0.37930135,-1.4627724,0.18146743
3410245797920,0.24398755,0,,0.002137208,-0.0033791668,0.00043765876,9.7835512,-0.40895,0.97905099,0.73930699,-0.080292001,-0.665941,-0.059165001,-0.37930135,-1.4627724,0.18146743
3410247774688,0.24596432,0,,0.0028510825,-0.0038274548,-0.0010585422,9.767066,-0.36990401,0.975335,0.73930103,-0.080288999,-0.66594797,-0.059163999,-0.37931879,-1.4627913,0.18148977
3410249786144,0.24797578,0,,0.0028510825,-0.0038274548,-0.0010585422,9.767066,-0.36990401,0.975335,0.73930103,-0.080288999,-0.66594797,-0.059163999,-0.37931879,-1.4627913,0.18148977
3410251774688,0.24996432,0,,0.0028510825,-0.0038274548,-0.0010585422,9.767066,-0.36990401,0.975335,0.73930103,-0.080288999,-0.66594797,-0.059163999,-0.37931879,-1.4627913,0.18148977
3410253778176,0.25196781,0,,-0.00016371188,-0.0036203014,0.0016696518,9.7581501,-0.33566099,0.98336297,0.73929697,-0.080288,-0.66595203,-0.059163999,-0.37933128,-1.4628029,0.18150367
3410255769696,0.25395933,0,,-0.00016371188,-0.0036203014,0.0016696518,9.7581501,-0.33566099,0.98336297,0.73929697,-0.080288,-0.66595203,-0.059163999,-0.37933128,-1.4628029,0.18150367
3410257774848,0.25596448,0,,0.0053887213,-0.001663578,0.0047090904,9.8021564,-0.37441501,0.98482698,0.73929399,-0.080287002,-0.66595501,-0.059156999,-0.37942069,-1.4628083,0.18160507
3410259808576,0.25799821,0,,0.0053887213,-0.001663578,0.0047090904,9.8021564,-0.37441501,0.98482698,0.73929399,-0.080287002,-0.66595501,-0.059156999,-0.37942069,-1.4628083,0.18160507
3410261771424,0.25996106,0,,0.0053887213,-0.001663578,0.0047090904,9.8021564,-0.37441501,0.98482698,0.73929399,-0.080287002,-0.66595501,-0.059156999,-0.37942069,-1.4628083,0.18160507
3410263758176,0.26194781,0,,-0.0012911771,0.00024232151,0.0035327732,9.7557173,-0.38271201,0.97195899,0.73929602,-0.080287002,-0.66595501,-0.059149999,-0.37950904,-1.4628034,0.18170399
3410265777696,0.26396733,0,,-0.0012911771,0.00024232151,0.0035327732,9.7557173,-0.38271201,0.97195899,0.73929602,-0.080287002,-0.66595501,-0.059149999,-0.37950904,-1.4628034,0.18170399
3410267799008,0.26598864,0,,-0.0029874452,0.0008947954,0.0034951441,9.7783985,-0.376183,0.98171502,0.73929602,-0.080300003,-0.66595298,-0.059149999,-0.37966494,-1.4627946,0.18184155
3410269800576,0.26799021,0,,-0.0029874452,0.0008947954,0.0034951441,9.7783985,-0.376183,0.98171502,0.73929602,-0.080300003,-0.66595298,-0.059149999,-0.37966494,-1.4627946,0.18184155
3410271795136,0.26998477,0,,-0.0029874452,0.0008947954,0.0034951441,9.7783985,-0.376183,0.98171502,0.73929602,-0.080300003,-0.66595298,-0.059149999,-0.37966494,-1.4627946,0.18184155
3410273800928,0.27199056,0,,-0.0015655429,-0.0022981098,-0.00043772856,9.7854662,-0.382516,0.972166,0.73929602,-0.080306001,-0.66595101,-0.059152998,-0.37971341,-1.4627913,0.18187673
3410275782080,0.27397171,0,,-0.0015655429,-0.0022981098,-0.00043772856,9.7854662,-0.382516,0.972166,0.73929602,-0.080306001,-0.66595101,-0.059152998,-0.37971341,-1.4627913,0.18187673
3410277791616,0.27598125,0,,-0.0016930567,-0.004583758,-0.0024189914,9.7910318,-0.397724,0.988442,0.73929,-0.080306999,-0.66595697,-0.059160002,-0.37967589,-1.4628107,0.18182929
3410279864000,0.27805363,0,,-0.0016930567,-0.004583758,-0.0024189914,9.7910318,-0.397724,0.988442,0.73929,-0.080306999,-0.66595697,-0.059160002,-0.37967589,-1.4628107,0.18182929
3410281795328,0.27998496,0,,-0.0016930567,-0.004583758,-0.0024189914,9.7910318,-0.397724,0.988442,0.73929,-0.080306999,-0.66595697,-0.059160002,-0.37967589,-1.4628107,0.18182929
3410283792896,0.28198253,0,,-0.00077438515,-0.0046639389,0.0013900675,9.7467985,-0.394701,0.97960597,0.73928303,-0.080310002,-0.66596502,-0.059163999,-0.37972549,-1.4628298,0.18186719
3410285783456,0.28397309,0,,-0.00077438515,-0.0046639389,0.0013900675,9.7467985,-0.394701,0.97960597,0.73928303,-0.080310002,-0.66596502,-0.059163999,-0.37972549,-1.4628298,0.18186719
3410287779680,0.28596931,0,,0.00067018897,0.00050846676,0.00070650926,9.739871,-0.39125699,0.99035597,0.739281,-0.080311,-0.66596699,-0.059163,-0.37975246,-1.4628342,0.1818951
3410289783648,0.28797328,0,,0.00067018897,0.00050846676,0.00070650926,9.739871,-0.39125699,0.99035597,0.739281,-0.080311,-0.66596699,-0.059163,-0.37975246,-1.4628342,0.1818951
3410291778144,0.28996778,0,,0.00067018897,0.00050846676,0.00070650926,9.739871,-0.39125699,0.99035597,0.739281,-0.080311,-0.66596699,-0.059163,-0.37975246,-1.4628342,0.1818951
3410293777760,0.29196739,0,,-0.0068124737,0.00019636699,-0.0024601463,9.73808,-0.38493899,0.99251902,0.73928201,-0.080315001,-0.66596401,-0.059172999,-0.37967975,-1.4628339,0.18180164
3410295790432,0.29398006,0,,-0.0068124737,0.00019636699,-0.0024601463,9.73808,-0.38493899,0.99251902,0.73928201,-0.080315001,-0.66596401,-0.059172999,-0.37967975,-1.4628339,0.18180164
3410297778368,0.295968,0,,-0.005003353,0.0012844751,0.00066118306,9.7697687,-0.392304,1.003876,0.73928601,-0.080325998,-0.66595697,-0.059188001,-0.37960478,-1.4628195,0.1816906
3410299828032,0.29801766,0,,-0.005003353,0.0012844751,0.00066118306,9.7697687,-0.392304,1.003876,0.73928601,-0.080325998,-0.66595697,-0.059188001,-0.37960478,-1.4628195,0.1816906
3410301774752,0.29996438,0,,-0.005003353,0.0012844751,0.00066118306,9.7697687,-0.392304,1.003876,0.73928601,-0.080325998,-0.66595697,-0.059188001,-0.37960478,-1.4628195,0.1816906
3410303771328,0.30196096,0,,-0.0033607012,4.4174282e-05,0.001940684,9.7345171,-0.412406,0.994784,0.73928797,-0.080337003,-0.66595399,-0.059193999,-0.37967046,-1.4628083,0.18173077
3410305803328,0.30399296,0,,-0.0033607012,4.4174282e-05,0.001940684,9.7345171,-0.412406,0.994784,0.73928797,-0.080337003,-0.66595399,-0.059193999,-0.37967046,-1.4628083,0.18173077
3410307770208,0.30595984,0,,-0.0028537878,-0.0047700721,0.00052043974,9.784606,-0.40773201,1.001192,0.73928398,-0.080347002,-0.66595602,-0.059197001,-0.37979094,-1.4628151,0.18183252
3410309826112,0.30801574,0,,-0.0028537878,-0.0047700721,0.00052043974,9.784606,-0.40773201,1.001192,0.73928398,-0.080347002,-0.66595602,-0.059197001,-0.37979094,-1.4628151,0.18183252
3410311776512,0.30996614,0,,-0.0028537878,-0.0047700721,0.00052043974,9.784606,-0.40773201,1.001192,0.73928398,-0.080347002,-0.66595602,-0.059197001,-0.37979094,-1.4628151,0.18183252
3410313783648,0.31197328,0,,0.0023615526,-0.0025853736,0.0013224185,9.8020372,-0.43416801,0.99703503,0.73927897,-0.080352999,-0.66596103,-0.059198,-0.37988558,-1.4628283,0.18191875
3410315773152,0.31396278,0,,0.0023615526,-0.0025853736,0.0013224185,9.8020372,-0.43416801,0.99703503,0.73927897,-0.080352999,-0.66596103,-0.059198,-0.37988558,-1.4628283,0.18191875
3410317772160,0.31596179,0,,0.0089861068,0.0030679746,-0.0037242534,9.7987957,-0.453444,0.98779899,0.739281,-0.080343001,-0.66596103,-0.059191,-0.37983565,-1.4628261,0.18189379
3410319806624,0.31799626,0,,0.0089861068,0.0030679746,-0.0037242534,9.7987957,-0.453444,0.98779899,0.739281,-0.080343001,-0.66596103,-0.059191,-0.37983565,-1.4628261,0.18189379
3410321774112,0.31996374,0,,0.0089861068,0.0030679746,-0.0037242534,9.7987957,-0.453444,0.98779899,0.739281,-0.080343001,-0.66596103,-0.059191,-0.37983565,-1.4628261,0.18189379
3410323758432,0.32194806,0,,0.0059062463,0.0028747144,-0.00099232438,9.7920694,-0.409015,0.98077798,0.73928899,-0.080328003,-0.66595399,-0.059184,-0.37966933,-1.4628083,0.1817577
3410325795712,0.32398534,0,,0.0059062463,0.0028747144,-0.00099232438,9.7920694,-0.409015,0.98077798,0.73928899,-0.080328003,-0.66595399,-0.059184,-0.37966933,-1.4628083,0.1817577
3410327795136,0.32598477,0,,-0.0028794966,7.3617988e-05,-0.00043240533,9.7718248,-0.37843001,0.99165899,0.73929101,-0.080325,-0.66595298,-0.059186,-0.37957749,-1.4628073,0.18166722
3410329795136,0.32798477,0,,-0.0028794966,7.3617988e-05,-0.00043240533,9.7718248,-0.37843001,0.99165899,0.73929101,-0.080325,-0.66595298,-0.059186,-0.37957749,-1.4628073,0.18166722
3410331794048,0.32998368,0,,-0.0028794966,7.3617988e-05,-0.00043240533,9.7718248,-0.37843001,0.99165899,0.73929101,-0.080325,-0.66595298,-0.059186,-0.37957749,-1.4628073,0.18166722
3410333789696,0.33197933,0,,-0.0018798244,-0.00027138125,0.00080002399,9.7658014,-0.38978699,0.98057503,0.73929,-0.080331996,-0.66595203,-0.059193,-0.3795925,-1.4628078,0.18166277
3410335783648,0.33397328,0,,-0.0018798244,-0.00027138125,0.00080002399,9.7658014,-0.38978699,0.98057503,0.73929,-0.080331996,-0.66595203,-0.059193,-0.3795925,-1.4628078,0.18166277
3410337782368,0.335972,0,,0.0075803666,0.0011626685,-0.0018896855,9.7548904,-0.381852,0.97267503,0.73929203,-0.080325,-0.66595101,-0.059190001,-0.37952819,-1.4628046,0.18161327
3410339830528,0.33802016,0,,0.0075803666,0.0011626685,-0.0018896855,9.7548904,-0.381852,0.97267503,0.73929203,-0.080325,-0.66595101,-0.059190001,-0.37952819,-1.4628046,0.18161327
3410341788672,0.3399783,0,,0.0075803666,0.0011626685,-0.0018896855,9.7548904,-0.381852,0.97267503,0.73929203,-0.080325,-0.66595101,-0.059190001,-0.37952819,-1.4628046,0.18161327
3410343784544,0.34197418,0,,0.0065005312,0.0026527958,-0.00041004765,9.7460661,-0.35411599,0.97617197,0.739299,-0.080306999,-0.66594601,-0.059181001,-0.37935984,-1.4627917,0.18148135
3410345778016,0.34396765,0,,0.0065005312,0.0026527958,-0.00041004765,9.7460661,-0.35411599,0.97617197,0.739299,-0.080306999,-0.66594601,-0.059181001,-0.37935984,-1.4627917,0.18148135
3410347783520,0.34597315,0,,-0.0076627457,-0.0041986339,0.0017924008,9.7485924,-0.35785499,0.97123498,0.73929697,-0.080308996,-0.66594702,-0.059184998,-0.37934063,-1.4627957,0.18145535
3410349809792,0.34799942,0,,-0.0076627457,-0.0041986339,0.0017924008,9.7485924,-0.35785499,0.97123498,0.73929697,-0.080308996,-0.66594702,-0.059184998,-0.37934063,-1.4627957,0.18145535
3410351780192,0.34996982,0,,-0.0076627457,-0.0041986339,0.0017924008,9.7485924,-0.35785499,0.97123498,0.73929697,-0.080308996,-0.66594702,-0.059184998,-0.37934063,-1.4627957,0.18145535
3410353777760,0.35196739,0,,-0.0056593697,-0.0036059201,0.0018986565,9.7678699,-0.40678599,0.96117502,0.73929,-0.080325,-0.66595203,-0.059195999,-0.37946297,-1.4628095,0.1815382
3410355771488,0.35396112,0,,-0.0056593697,-0.0036059201,0.0018986565,9.7678699,-0.40678599,0.96117502,0.73929,-0.080325,-0.66595203,-0.059195999,-0.37946297,-1.4628095,0.1815382
3410357779040,0.35596867,0,,0.0038601797,-0.0032324719,0.0023678183,9.7656231,-0.391902,0.96495497,0.73928499,-0.080333002,-0.66595697,-0.059193999,-0.37963814,-1.4628205,0.18170395
3410359849152,0.35803878,0,,0.0038601797,-0.0032324719,0.0023678183,9.7656231,-0.391902,0.96495497,0.73928499,-0.080333002,-0.66595697,-0.059193999,-0.37963814,-1.4628205,0.18170395
3410361821664,0.3600113,0,,0.0038601797,-0.0032324719,0.0023678183,9.7656231,-0.391902,0.96495497,0.73928499,-0.080333002,-0.66595697,-0.059193999,-0.37963814,-1.4628205,0.18170395
3410363806336,0.36199597,0,,0.0041639892,0.0015372859,-0.0003199712,9.7918568,-0.35774899,0.981215,0.73928499,-0.080326997,-0.66595799,-0.059186999,-0.37964636,-1.4628217,0.18173177
3410365790496,0.36398013,0,,0.0041639892,0.0015372859,-0.0003199712,9.7918568,-0.35774899,0.981215,0.73928499,-0.080326997,-0.66595799,-0.059186999,-0.37964636,-1.4628217,0.18173177
3410367767264,0.3659569,0,,0.0021738948,0.0007130368,0.00025994934,9.788888,-0.35811201,0.98416698,0.73928797,-0.080320001,-0.66595697,-0.059186,-0.37954759,-1.4628183,0.18164545
3410369776832,0.36796646,0,,0.0021738948,0.0007130368,0.00025994934,9.788888,-0.35811201,0.98416698,0.73928797,-0.080320001,-0.66595697,-0.059186,-0.37954759,-1.4628183,0.18164545
3410371763232,0.36995286,0,,0.0021738948,0.0007130368,0.00025994934,9.788888,-0.35811201,0.98416698,0.73928797,-0.080320001,-0.66595697,-0.059186,-0.37954759,-1.4628183,0.18164545
3410373777504,0.37196714,0,,0.0034100766,0.0033942464,0.0020713568,9.778883,-0.40563101,0.97465003,0.73929298,-0.080315001,-0.66595101,-0.059181999,-0.37948408,-1.4628022,0.1815939
3410375755712,0.37394534,0,,0.0034100766,0.0033942464,0.0020713568,9.778883,-0.40563101,0.97465003,0.73929298,-0.080315001,-0.66595101,-0.059181999,-0.37948408,-1.4628022,0.1815939
3410377769376,0.37595901,0,,-0.0012158662,-1.3840461e-05,0.00062554345,9.7673721,-0.37407699,0.97704399,0.73929697,-0.080316998,-0.66594702,-0.059179999,-0.37950768,-1.4627901,0.18161702
3410379812544,0.37800218,0,,-0.0012158662,-1.3840461e-05,0.00062554345,9.7673721,-0.37407699,0.97704399,0.73929697,-0.080316998,-0.66594702,-0.059179999,-0.37950768,-1.4627901,0.18161702
3410381767040,0.37995667,0,,-0.0012158662,-1.3840461e-05,0.00062554345,9.7673721,-0.37407699,0.97704399,0.73929697,-0.080316998,-0.66594702,-0.059179999,-0.37950768,-1.4627901,0.18161702
3410383788768,0.3819784,0,,-0.005928517,-0.0021496347,0.0034557868,9.7714024,-0.381529,1.006682,0.73929697,-0.080325998,-0.66594601,-0.059184,-0.37958028,-1.4627885,0.18167219
3410385786688,0.38397632,0,,-0.005928517,-0.0021496347,0.0034557868,9.7714024,-0.381529,1.006682,0.73929697,-0.080325998,-0.66594601,-0.059184,-0.37958028,-1.4627885,0.18167219
3410387791232,0.38598086,0,,-0.001617065,-0.00030351275,0.0016909797,9.7433739,-0.42797101,0.98811603,0.73929399,-0.080340996,-0.66594702,-0.059190001,-0.37972902,-1.462789,0.18178994
3410389788928,0.38797856,0,,-0.001617065,-0.00030351275,0.0016909797,9.7433739,-0.42797101,0.98811603,0.73929399,-0.080340996,-0.66594702,-0.059190001,-0.37972902,-1.462789,0.18178994
3410391786496,0.38997613,0,,-0.001617065,-0.00030351275,0.0016909797,9.7433739,-0.42797101,0.98811603,0.73929399,-0.080340996,-0.66594702,-0.059190001,-0.37972902,-1.462789,0.18178994
3410393782528,0.39197216,0,,0.0031435998,0.00083779296,-0.0010781946,9.7592735,-0.445813,0.984411,0.73929602,-0.080342002,-0.66594398,-0.059188001,-0.37973342,-1.4627806,0.18179543
3410395922912,0.39411254,0,,0.0031435998,0.00083779296,-0.0010781946,9.7592735,-0.445813,0.984411,0.73929602,-0.080342002,-0.66594398,-0.059188001,-0.37973342,-1.4627806,0.18179543
3410397803200,0.39599283,0,,0.004412175,0.002197387,-0.0021188471,9.7733974,-0.39921001,0.99855202,0.73930198,-0.080333002,-0.66593897,-0.059184998,-0.37961753,-1.4627692,0.18169823
3410399884480,0.39807411,0,,0.004412175,0.002197387,-0.0021188471,9.7733974,-0.39921001,0.99855202,0.73930198,-0.080333002,-0.66593897,-0.059184998,-0.37961753,-1.4627692,0.18169823
3410401822528,0.40001216,0,,0.004412175,0.002197387,-0.0021188471,9.7733974,-0.39921001,0.99855202,0.73930198,-0.080333002,-0.66593897,-0.059184998,-0.37961753,-1.4627692,0.18169823
3410403780992,0.40197062,0,,0.0032619679,0.0015239867,2.295108e-05,9.7620878,-0.41998899,1.000329,0.73930597,-0.080325998,-0.66593599,-0.059184,-0.37951603,-1.4627624,0.18160696
3410405778688,0.40396832,0,,0.0032619679,0.0015239867,2.295108e-05,9.7620878,-0.41998899,1.000329,0.73930597,-0.080325998,-0.66593599,-0.059184,-0.37951603,-1.4627624,0.18160696
3410407780992,0.40597062,0,,-0.0026455351,0.0012885416,0.00013969616,9.7581606,-0.39750001,0.99363703,0.73930901,-0.080329999,-0.66593099,-0.059186999,-0.37950628,-1.4627515,0.18158666
3410409849600,0.40803923,0,,-0.0026455351,0.0012885416,0.00013969616,9.7581606,-0.39750001,0.99363703,0.73930901,-0.080329999,-0.66593099,-0.059186999,-0.37950628,-1.4627515,0.18158666
3410411831552,0.41002118,0,,-0.0026455351,0.0012885416,0.00013969616,9.7581606,-0.39750001,0.99363703,0.73930901,-0.080329999,-0.66593099,-0.059186999,-0.37950628,-1.4627515,0.18158666
3410413783872,0.4119735,0,,0.0016311673,0.0028237333,0.00038494983,9.7514849,-0.40202901,0.97438699,0.73931301,-0.080331996,-0.66592598,-0.059190001,-0.37945505,-1.4627382,0.18152727
3410415769568,0.4139592,0,,0.0016311673,0.0028237333,0.00038494983,9.7514849,-0.40202901,0.97438699,0.73931301,-0.080331996,-0.66592598,-0.059190001,-0.37945505,-1.4627382,0.18152727
3410417788672,0.4159783,0,,0.0039632412,0.0021437704,0.0024890489,9.7856579,-0.36319399,0.997208,0.73931998,-0.080329999,-0.66591901,-0.059184,-0.37944816,-1.4627171,0.18153244
3410419814976,0.41800461,0,,0.0039632412,0.0021437704,0.0024890489,9.7856579,-0.36319399,0.997208,0.73931998,-0.080329999,-0.66591901,-0.059184,-0.37944816,-1.4627171,0.18153244
3410421770496,0.41996013,0,,0.0039632412,0.0021437704,0.0024890489,9.7856579,-0.36319399,0.997208,0.73931998,-0.080329999,-0.66591901,-0.059184,-0.37944816,-1.4627171,0.18153244
3410423763264,0.4219529,0,,0.0028659527,0.0012728337,0.0019359367,9.8267412,-0.42134801,1.0029891,0.739326,-0.080326997,-0.665914,-0.059177,-0.3794438,-1.4627001,0.18154273
3410425769728,0.42395936,0,,0.0028659527,0.0012728337,0.0019359367,9.8267412,-0.42134801,1.0029891,0.739326,-0.080326997,-0.665914,-0.059177,-0.3794438,-1.4627001,0.18154273
3410427769824,0.42595946,0,,-0.0027067961,-0.0039811483,0.0018335556,9.7985487,-0.42020401,0.98208499,0.73932701,-0.080330998,-0.66591299,-0.059175,-0.37952858,-1.4626961,0.18162554
3410429850368,0.42804,0,,-0.0027067961,-0.0039811483,0.0018335556,9.7985487,-0.42020401,0.98208499,0.73932701,-0.080330998,-0.66591299,-0.059175,-0.37952858,-1.4626961,0.18162554
3410431761024,0.42995066,0,,-0.0027067961,-0.0039811483,0.0018335556,9.7985487,-0.42020401,0.98208499,0.73932701,-0.080330998,-0.66591299,-0.059175,-0.37952858,-1.4626961,0.18162554
3410433771584,0.43196122,0,,-0.00051930526,-7.009242e-05,-0.0043292367,9.7398338,-0.38196999,0.98315102,0.73932099,-0.080338001,-0.66591698,-0.059181999,-0.37956104,-1.4627094,0.18163684
3410435755840,0.43394547,0,,-0.00051930526,-7.009242e-05,-0.0043292367,9.7398338,-0.38196999,0.98315102,0.73932099,-0.080338001,-0.66591698,-0.059181999,-0.37956104,-1.4627094,0.18163684
3410437762496,0.43595213,0,,0.0056898255,0.0058545498,-0.0049190884,9.7282944,-0.364842,0.97263098,0.73932701,-0.080324002,-0.66591197,-0.059188999,-0.3792662,-1.4627018,0.18135228
3410439809504,0.43799914,0,,0.0056898255,0.0058545498,-0.0049190884,9.7282944,-0.364842,0.97263098,0.73932701,-0.080324002,-0.66591197,-0.059188999,-0.3792662,-1.4627018,0.18135228
3410441792800,0.43998243,0,,0.0056898255,0.0058545498,-0.0049190884,9.7282944,-0.364842,0.97263098,0.73932701,-0.080324002,-0.66591197,-0.059188999,-0.3792662,-1.4627018,0.18135228
3410443797760,0.44198739,0,,0.0031673188,-0.0034324167,-0.0001717753,9.7614956,-0.38790801,0.977063,0.73933101,-0.080308996,-0.66590899,-0.059191998,-0.37900201,-1.4626985,0.18110509
3410445788416,0.44397805,0,,0.0031673188,-0.0034324167,-0.0001717753,9.7614956,-0.38790801,0.977063,0.73933101,-0.080308996,-0.66590899,-0.059191998,-0.37900201,-1.4626985,0.18110509
3410447786496,0.44597613,0,,0.00050401617,-0.0037181622,0.0037198901,9.7780533,-0.370139,0.96686202,0.73932701,-0.080311,-0.66591299,-0.059186,-0.37913244,-1.4627082,0.18124174
3410449783552,0.44797318,0,,0.00050401617,-0.0037181622,0.0037198901,9.7780533,-0.370139,0.96686202,0.73932701,-0.080311,-0.66591299,-0.059186,-0.37913244,-1.4627082,0.18124174
3410451790880,0.44998051,0,,0.00050401617,-0.0037181622,0.0037198901,9.7780533,-0.370139,0.96686202,0.73932701,-0.080311,-0.66591299,-0.059186,-0.37913244,-1.4627082,0.18124174
3410453783296,0.45197293,0,,0.00041690678,-0.002345007,-0.0011600855,9.7764015,-0.35301101,0.95674801,0.73932302,-0.080311999,-0.66591799,-0.059184998,-0.37917542,-1.4627183,0.18128399
3410455779232,0.45396886,0,,0.00041690678,-0.002345007,-0.0011600855,9.7764015,-0.35301101,0.95674801,0.73932302,-0.080311999,-0.66591799,-0.059184998,-0.37917542,-1.4627183,0.18128399
3410457777312,0.45596694,0,,-0.0057229345,-0.0028805263,0.0015838513,9.7708158,-0.32806998,0.97613698,0.73931801,-0.080316,-0.665923,-0.059193,-0.37917678,-1.4627359,0.18126944
3410459831424,0.45802106,0,,-0.0057229345,-0.0028805263,0.0015838513,9.7708158,-0.32806998,0.97613698,0.73931801,-0.080316,-0.665923,-0.059193,-0.37917678,-1.4627359,0.18126944
3410461790240,0.45997987,0,,-0.0057229345,-0.0028805263,0.0015838513,9.7708158,-0.32806998,0.97613698,0.73931801,-0.080316,-0.665923,-0.059193,-0.37917678,-1.4627359,0.18126944
3410463806016,0.46199565,0,,0.001580413,-0.0020172341,0.0018913435,9.7697077,-0.37936601,0.97643799,0.73931402,-0.080319002,-0.66592598,-0.059198,-0.37918996,-1.4627454,0.18127071
3410465794976,0.46398461,0,,0.001580413,-0.0020172341,0.0018913435,9.7697077,-0.37936601,0.97643799,0.73931402,-0.080319002,-0.66592598,-0.059198,-0.37918996,-1.4627454,0.18127071
3410467780160,0.46596979,0,,-0.00037803832,-0.0019527616,0.0017378417,9.7976723,-0.402336,0.98227698,0.73931199,-0.080320999,-0.66592902,-0.059193,-0.37929682,-1.4627498,0.18138151
3410469778688,0.46796832,0,,-0.00037803832,-0.0019527616,0.0017378417,9.7976723,-0.402336,0.98227698,0.73931199,-0.080320999,-0.66592902,-0.059193,-0.37929682,-1.4627498,0.18138151
3410471766368,0.469956,0,,-0.00037803832,-0.0019527616,0.0017378417,9.7976723,-0.402336,0.98227698,0.73931199,-0.080320999,-0.66592902,-0.059193,-0.37929682,-1.4627498,0.18138151
3410473773984,0.47196362,0,,-0.0015282627,0.0020399582,0.0014450104,9.7968435,-0.41942799,0.98490101,0.73931402,-0.080325998,-0.66592503,-0.059193,-0.37934669,-1.4627382,0.18142439
3410475825056,0.47401469,0,,-0.0015282627,0.0020399582,0.0014450104,9.7968435,-0.41942799,0.98490101,0.73931402,-0.080325998,-0.66592503,-0.059193,-0.37934669,-1.4627382,0.18142439
3410477776000,0.47596563,0,,0.0032935758,-0.0020232729,0.00041994367,9.7893257,-0.39677501,0.98726398,0.73931497,-0.080329001,-0.66592503,-0.059191,-0.37938607,-1.4627366,0.18146232
3410479814560,0.47800419,0,,0.0032935758,-0.0020232729,0.00041994367,9.7893257,-0.39677501,0.98726398,0.73931497,-0.080329001,-0.66592503,-0.059191,-0.37938607,-1.4627366,0.18146232
3410481803776,0.47999341,0,,0.0032935758,-0.0020232729,0.00041994367,9.7893257,-0.39677501,0.98726398,0.73931497,-0.080329001,-0.66592503,-0.059191,-0.37938607,-1.4627366,0.18146232
3410483771360,0.48196099,0,,0.003333544,-0.0013962634,-0.0019436859,9.7591591,-0.398597,1.000532,0.73931301,-0.080320999,-0.66592801,-0.059188999,-0.37933085,-1.4627454,0.18142199
3410485779776,0.48396941,0,,0.003333544,-0.0013962634,-0.0019436859,9.7591591,-0.398597,1.000532,0.73931301,-0.080320999,-0.66592801,-0.059188999,-0.37933085,-1.4627454,0.18142199
3410487760416,0.48595005,0,,-0.00053400092,0.0031738113,0.00079534656,9.740056,-0.419705,0.99445897,0.73931599,-0.080316,-0.66592503,-0.059190001,-0.379239,-1.4627388,0.1813352
3410489764896,0.48795453,0,,-0.00053400092,0.0031738113,0.00079534656,9.740056,-0.419705,0.99445897,0.73931599,-0.080316,-0.66592503,-0.059190001,-0.379239,-1.4627388,0.1813352
3410491752256,0.48994189,0,,-0.00053400092,0.0031738113,0.00079534656,9.740056,-0.419705,0.99445897,0.73931599,-0.080316,-0.66592503,-0.059190001,-0.379239,-1.4627388,0.1813352
3410493760608,0.49195024,0,,-0.0001327672,-0.00076578066,0.0014512064,9.7279377,-0.38805899,0.99090302,0.73931903,-0.080323003,-0.66592002,-0.059193,-0.3792649,-1.4627276,0.18134752
3410495746336,0.49393597,0,,-0.0001327672,-0.00076578066,0.0014512064,9.7279377,-0.38805899,0.99090302,0.73931903,-0.080323003,-0.66592002,-0.059193,-0.3792649,-1.4627276,0.18134752
3410497789056,0.49597869,0,,0.0031352571,-0.0015254701,0.00023846434,9.7417736,-0.377341,1.004282,0.73931903,-0.080323003,-0.66592199,-0.059188999,-0.37930931,-1.4627288,0.18139684
3410499840896,0.49803053,0,,0.0031352571,-0.0015254701,0.00023846434,9.7417736,-0.377341,1.004282,0.73931903,-0.080323003,-0.66592199,-0.059188999,-0.37930931,-1.4627288,0.18139684
3410501780224,0.49996986,0,,0.0031352571,-0.0015254701,0.00023846434,9.7417736,-0.377341,1.004282,0.73931903,-0.080323003,-0.66592199,-0.059188999,-0.37930931,-1.4627288,0.18139684
3410503780576,0.50197021,0,,0.005329066,0.00046790531,0.00026267205,9.7804327,-0.444244,0.99671602,0.73931903,-0.080316998,-0.66592199,-0.059184,-0.37929972,-1.4627271,0.18140308
3410505806048,0.50399568,0,,0.005329066,0.00046790531,0.00026267205,9.7804327,-0.444244,0.99671602,0.73931903,-0.080316998,-0.66592199,-0.059184,-0.37929972,-1.4627271,0.18140308
3410507777504,0.50596714,0,,0.0039535721,0.00039610246,0.0016443271,9.8124619,-0.42157701,1.00816,0.73932302,-0.080312997,-0.66591901,-0.059176002,-0.37930391,-1.4627171,0.18142454
3410509828992,0.50801862,0,,0.0039535721,0.00039610246,0.0016443271,9.8124619,-0.42157701,1.00816,0.73932302,-0.080312997,-0.66591901,-0.059176002,-0.37930391,-1.4627171,0.18142454
3410511778592,0.50996822,0,,0.0039535721,0.00039610246,0.0016443271,9.8124619,-0.42157701,1.00816,0.73932302,-0.080312997,-0.66591901,-0.059176002,-0.37930391,-1.4627171,0.18142454
3410513774432,0.51196406,0,,-0.00044469244,-0.0030598239,0.001921014,9.7654552,-0.40324101,0.99354601,0.73932397,-0.080316,-0.66591698,-0.059174001,-0.3793622,-1.462711,0.18148026
3410515770944,0.51396058,0,,-0.00044469244,-0.0030598239,0.001921014,9.7654552,-0.40324101,0.99354601,0.73932397,-0.080316,-0.66591698,-0.059174001,-0.3793622,-1.462711,0.18148026
3410517787072,0.5159767,0,,0.00046858599,-0.0061661084,0.0011791095,9.7706137,-0.40787801,0.97928798,0.73931801,-0.080323003,-0.66592401,-0.059172001,-0.37952153,-1.4627264,0.18163283
3410519812832,0.51800246,0,,0.00046858599,-0.0061661084,0.0011791095,9.7706137,-0.40787801,0.97928798,0.73931801,-0.080323003,-0.66592401,-0.059172001,-0.37952153,-1.4627264,0.18163283
3410521839776,0.52002941,0,,0.00046858599,-0.0061661084,0.0011791095,9.7706137,-0.40787801,0.97928798,0.73931801,-0.080323003,-0.66592401,-0.059172001,-0.37952153,-1.4627264,0.18163283
3410523765888,0.52195552,0,,-0.001745975,-0.0053363793,0.0016687093,9.7780018,-0.368332,0.99132502,0.73930901,-0.080326997,-0.66593301,-0.059170999,-0.37964963,-1.4627488,0.18175667
3410525775232,0.52396486,0,,-0.001745975,-0.0053363793,0.0016687093,9.7780018,-0.368332,0.99132502,0.73930901,-0.080326997,-0.66593301,-0.059170999,-0.37964963,-1.4627488,0.18175667
3410527765248,0.52595488,0,,-0.004759949,-0.0044357195,0.0042601566,9.780921,-0.38166699,0.98971999,0.73930103,-0.080339,-0.66593999,-0.059172999,-0.37985086,-1.4627652,0.18193834
3410529783360,0.52797299,0,,-0.004759949,-0.0044357195,0.0042601566,9.780921,-0.38166699,0.98971999,0.73930103,-0.080339,-0.66593999,-0.059172999,-0.37985086,-1.4627652,0.18193834
3410531764896,0.52995453,0,,-0.004759949,-0.0044357195,0.0042601566,9.780921,-0.38166699,0.98971999,0.73930103,-0.080339,-0.66593999,-0.059172999,-0.37985086,-1.4627652,0.18193834
3410533794944,0.53198458,0,,0.00051869441,0.0028520601,0.0026846479,9.7747688,-0.39592201,0.97102302,0.73930198,-0.080348998,-0.66593802,-0.059172001,-0.37998249,-1.4627552,0.18205777
3410535761184,0.53395082,0,,0.00051869441,0.0028520601,0.0026846479,9.7747688,-0.39592201,0.97102302,0.73930198,-0.080348998,-0.66593802,-0.059172001,-0.37998249,-1.4627552,0.18205777
3410537764224,0.53595386,0,,-0.0034651767,0.0015485434,5.0509827e-05,9.7492685,-0.37189999,0.97961903,0.73930502,-0.080352999,-0.66593403,-0.059172001,-0.38,-1.4627464,0.18206911
3410539815392,0.53800502,0,,-0.0034651767,0.0015485434,5.0509827e-05,9.7492685,-0.37189999,0.97961903,0.73930502,-0.080352999,-0.66593403,-0.059172001,-0.38,-1.4627464,0.18206911
3410541761280,0.53995091,0,,-0.0034651767,0.0015485434,5.0509827e-05,9.7492685,-0.37189999,0.97961903,0.73930502,-0.080352999,-0.66593403,-0.059172001,-0.38,-1.4627464,0.18206911
3410543758048,0.54194768,0,,-0.0034651767,0.0015485434,5.0509827e-05,9.7492685,-0.37189999,0.97961903,0.73930502,-0.080352999,-0.66593403,-0.059172001,-0.38,-1.4627464,0.18206911
3410545761568,0.5439512,0,,-0.0034651767,0.0015485434,5.0509827e-05,9.7492685,-0.37189999,0.97961903,0.73930502,-0.080352999,-0.66593403,-0.059172001,-0.38,-1.4627464,0.18206911
3410547751264,0.5459409,0,,0.0064501782,0.0016779072,-0.0014869856,9.7944965,-0.37255099,0.98754799,0.73930401,-0.080353998,-0.66593403,-0.059190001,-0.37981221,-1.4627532,0.18185434
3410549760032,0.54794966,0,,0.0064501782,0.0016779072,-0.0014869856,9.7944965,-0.37255099,0.98754799,0.73930401,-0.080353998,-0.66593403,-0.059190001,-0.37981221,-1.4627532,0.18185434
3410551750528,0.54994016,0,,0.0064501782,0.0016779072,-0.0014869856,9.7944965,-0.37255099,0.98754799,0.73930401,-0.080353998,-0.66593403,-0.059190001,-0.37981221,-1.4627532,0.18185434
3410553755584,0.55194522,0,,-0.00019807742,0.0013927204,-0.0013310928,9.7400341,-0.381082,0.97395897,0.739308,-0.080344997,-0.66592997,-0.059190001,-0.37966514,-1.4627459,0.1817199
3410555745536,0.55393517,0,,-0.00019807742,0.0013927204,-0.0013310928,9.7400341,-0.381082,0.97395897,0.739308,-0.080344997,-0.66592997,-0.059190001,-0.37966514,-1.4627459,0.1817199
3410557788384,0.55597802,0,,0.00095343846,0.0015555771,0.001619142,9.7608948,-0.35903201,0.97604901,0.73931098,-0.080344997,-0.66592699,-0.059191998,-0.37961747,-1.4627366,0.18166943
3410559931808,0.55812144,0,,0.00095343846,0.0015555771,0.001619142,9.7608948,-0.35903201,0.97604901,0.73931098,-0.080344997,-0.66592699,-0.059191998,-0.37961747,-1.4627366,0.18166943
3410561871776,0.56006141,0,,0.00095343846,0.0015555771,0.001619142,9.7608948,-0.35903201,0.97604901,0.73931098,-0.080344997,-0.66592699,-0.059191998,-0.37961747,-1.4627366,0.18166943
3410563779296,0.56196893,0,,-0.00048520152,-0.00028808404,0.0020806594,9.7590189,-0.37458801,0.96828502,0.73931199,-0.080347002,-0.66592598,-0.059190001,-0.37965076,-1.4627332,0.18170307
3410565823616,0.56401325,0,,-0.00048520152,-0.00028808404,0.0020806594,9.7590189,-0.37458801,0.96828502,0.73931199,-0.080347002,-0.66592598,-0.059190001,-0.37965076,-1.4627332,0.18170307
3410567776704,0.56596634,0,,-0.0021704042,-0.00011362094,9.1804317e-06,9.8078632,-0.389121,0.99350697,0.73931301,-0.080348998,-0.66592503,-0.059193,-0.37965319,-1.4627315,0.18169781
3410569778464,0.5679681,0,,-0.0021704042,-0.00011362094,9.1804317e-06,9.8078632,-0.389121,0.99350697,0.73931301,-0.080348998,-0.66592503,-0.059193,-0.37965319,-1.4627315,0.18169781
3410571772288,0.56996192,0,,-0.0021704042,-0.00011362094,9.1804317e-06,9.8078632,-0.389121,0.99350697,0.73931301,-0.080348998,-0.66592503,-0.059193,-0.37965319,-1.4627315,0.18169781
3410573777504,0.57196714,0,,-0.0038801461,0.0012064938,-0.0012671265,9.8096714,-0.40217,0.98650903,0.73931402,-0.080353998,-0.66592199,-0.059202,-0.37960079,-1.4627271,0.18162591
3410575762848,0.57395248,0,,-0.0038801461,0.0012064938,-0.0012671265,9.8096714,-0.40217,0.98650903,0.73931402,-0.080353998,-0.66592199,-0.059202,-0.37960079,-1.4627271,0.18162591
3410577778912,0.57596854,0,,-0.0045049045,0.00029700267,0.0013765586,9.7838964,-0.41013399,0.98546898,0.73931599,-0.080365002,-0.66591698,-0.059211001,-0.37960432,-1.4627161,0.18160064
3410579813856,0.57800349,0,,-0.0045049045,0.00029700267,0.0013765586,9.7838964,-0.41013399,0.98546898,0.73931599,-0.080365002,-0.66591698,-0.059211001,-0.37960432,-1.4627161,0.18160064
3410581771680,0.57996131,0,,-0.0045049045,0.00029700267,0.0013765586,9.7838964,-0.41013399,0.98546898,0.73931599,-0.080365002,-0.66591698,-0.059211001,-0.37960432,-1.4627161,0.18160064
3410583762912,0.58195254,0,,0.0021982421,0.0012515407,-0.00010740756,9.7657757,-0.38622999,0.99838501,0.73931801,-0.080370001,-0.66591501,-0.059214,-0.3796195,-1.462711,0.18160448
3410585769792,0.58395942,0,,0.0021982421,0.0012515407,-0.00010740756,9.7657757,-0.38622999,0.99838501,0.73931801,-0.080370001,-0.66591501,-0.059214,-0.3796195,-1.462711,0.18160448
3410587762368,0.585952,0,,0.0019957665,-0.00029633945,0.00078450803,9.7495623,-0.43157601,0.99277198,0.73932099,-0.080365002,-0.66591197,-0.059211999,-0.37955046,-1.4627045,0.18154623
3410589793632,0.58798326,0,,0.0019957665,-0.00029633945,0.00078450803,9.7495623,-0.43157601,0.99277198,0.73932099,-0.080365002,-0.66591197,-0.059211999,-0.37955046,-1.4627045,0.18154623
3410591758016,0.58994765,0,,0.0019957665,-0.00029633945,0.00078450803,9.7495623,-0.43157601,0.99277198,0.73932099,-0.080365002,-0.66591197,-0.059211999,-0.37955046,-1.4627045,0.18154623
3410593764928,0.59195456,0,,0.0018755308,-0.0026971619,-0.0016757255,9.7564411,-0.41915399,1.000194,0.73931998,-0.080365002,-0.66591299,-0.059209,-0.3795964,-1.462705,0.18159511
3410595833920,0.59402355,0,,0.0018755308,-0.0026971619,-0.0016757255,9.7564411,-0.41915399,1.000194,0.73931998,-0.080365002,-0.66591299,-0.059209,-0.3795964,-1.462705,0.18159511
3410597781952,0.59597158,0,,0.0015429933,0.0010168288,-0.0014326535,9.7596073,-0.39604101,0.99528301,0.73931998,-0.080362998,-0.66591299,-0.059213001,-0.37952509,-1.462709,0.18152181
3410599967776,0.59815741,0,,0.0015429933,0.0010168288,-0.0014326535,9.7596073,-0.39604101,0.99528301,0.73931998,-0.080362998,-0.66591299,-0.059213001,-0.37952509,-1.462709,0.18152181
3410601788544,0.59997818,0,,0.0015429933,0.0010168288,-0.0014326535,9.7596073,-0.39604101,0.99528301,0.73931998,-0.080362998,-0.66591299,-0.059213001,-0.37952509,-1.462709,0.18152181
3410603752608,0.60194224,0,,0.0012259542,0.00046797514,-0.0032627359,9.7588587,-0.41023499,0.99219102,0.73932201,-0.080357999,-0.66591102,-0.059216,-0.37940681,-1.4627062,0.18140561
3410605757312,0.60394694,0,,0.0012259542,0.00046797514,-0.0032627359,9.7588587,-0.41023499,0.99219102,0.73932201,-0.080357999,-0.66591102,-0.059216,-0.37940681,-1.4627062,0.18140561
3410607748320,0.60593795,0,,0.0042244822,-1.0367255e-05,-0.0027288572,9.7690144,-0.39706099,0.99304998,0.739326,-0.080349997,-0.66590703,-0.059218001,-0.37924463,-1.4627001,0.18125181
3410609765728,0.60795536,0,,0.0042244822,-1.0367255e-05,-0.0027288572,9.7690144,-0.39706099,0.99304998,0.739326,-0.080349997,-0.66590703,-0.059218001,-0.37924463,-1.4627001,0.18125181
3410611746848,0.60993648,0,,0.0042244822,-1.0367255e-05,-0.0027288572,9.7690144,-0.39706099,0.99304998,0.739326,-0.080349997,-0.66590703,-0.059218001,-0.37924463,-1.4627001,0.18125181
3410613803136,0.61199277,0,,-0.0021662328,-0.0054793567,0.0039505178,9.7762299,-0.40210301,0.99883002,0.73932201,-0.080348998,-0.66591197,-0.059218001,-0.37926147,-1.462711,0.18127114
3410615779296,0.61396893,0,,-0.0021662328,-0.0054793567,0.0039505178,9.7762299,-0.40210301,0.99883002,0.73932201,-0.080348998,-0.66591197,-0.059218001,-0.37926147,-1.462711,0.18127114
3410617810368,0.616,0,,-0.00019018853,-0.0022938165,0.00051991614,9.7513218,-0.37204501,0.990372,0.739317,-0.080358997,-0.66591603,-0.059218001,-0.37942858,-1.4627198,0.18142272
3410619820768,0.6180104,0,,-0.00019018853,-0.0022938165,0.00051991614,9.7513218,-0.37204501,0.990372,0.739317,-0.080358997,-0.66591603,-0.059218001,-0.37942858,-1.4627198,0.18142272
3410621778816,0.61996845,0,,0.0056081268,0.0033214838,0.0034520344,9.7243185,-0.36977699,0.97892398,0.73932099,-0.080356002,-0.66591299,-0.059213001,-0.37942502,-1.4627094,0.18143139
3410623771328,0.62196096,0,,0.0056081268,0.0033214838,0.0034520344,9.7243185,-0.36977699,0.97892398,0.73932099,-0.080356002,-0.66591299,-0.059213001,-0.37942502,-1.4627094,0.18143139
3410625776000,0.62396563,0,,0.0056081268,0.0033214838,0.0034520344,9.7243185,-0.36977699,0.97892398,0.73932099,-0.080356002,-0.66591299,-0.059213001,-0.37942502,-1.4627094,0.18143139
3410627767840,0.62595747,0,,0.004450642,0.00075794416,0.0013056634,9.7677374,-0.382779,0.98393703,0.73932803,-0.080348,-0.66590703,-0.059202,-0.37940618,-1.4626912,0.18143943
3410629879296,0.62806893,0,,0.004450642,0.00075794416,0.0013056634,9.7677374,-0.382779,0.98393703,0.73932803,-0.080348,-0.66590703,-0.059202,-0.37940618,-1.4626912,0.18143943
3410631766912,0.62995654,0,,0.004450642,0.00075794416,0.0013056634,9.7677374,-0.382779,0.98393703,0.73932803,-0.080348,-0.66590703,-0.059202,-0.37940618,-1.4626912,0.18143943
3410633779200,0.63196883,0,,-0.0041287335,-0.00074986326,0.00011166616,9.7907763,-0.401669,0.97148901,0.73932803,-0.080348998,-0.66590703,-0.059204001,-0.37939459,-1.4626912,0.18142389
3410635856096,0.63404573,0,,-0.0041287335,-0.00074986326,0.00011166616,9.7907763,-0.401669,0.97148901,0.73932803,-0.080348998,-0.66590703,-0.059204001,-0.37939459,-1.4626912,0.18142389
3410637804352,0.63599398,0,,-0.00046905724,-0.00088528338,-0.0026150268,9.7875118,-0.366303,0.98137403,0.73932701,-0.080352001,-0.66590703,-0.059209,-0.37938095,-1.462695,0.18139724
3410639823936,0.63801357,0,,-0.00046905724,-0.00088528338,-0.0026150268,9.7875118,-0.366303,0.98137403,0.73932701,-0.080352001,-0.66590703,-0.059209,-0.37938095,-1.462695,0.18139724
3410641763520,0.63995315,0,,-0.00046905724,-0.00088528338,-0.0026150268,9.7875118,-0.366303,0.98137403,0.73932701,-0.080352001,-0.66590703,-0.059209,-0.37938095,-1.462695,0.18139724
3410643766464,0.6419561,0,,-0.0029683687,-0.0013397322,-0.0020167454,9.7797365,-0.37750399,0.96354598,0.73932302,-0.080352999,-0.66591001,-0.059218999,-0.37929796,-1.462705,0.18129899
3410645761536,0.64395117,0,,-0.0029683687,-0.0013397322,-0.0020167454,9.7797365,-0.37750399,0.96354598,0.73932302,-0.080352999,-0.66591001,-0.059218999,-0.37929796,-1.462705,0.18129899
3410647756512,0.64594614,0,,-0.0060415968,-0.0020697161,0.0035637004,9.7854261,-0.38997999,0.96664697,0.73932201,-0.080362,-0.66591001,-0.059225999,-0.37932931,-1.4627066,0.18130867
3410649788384,0.64797802,0,,-0.0060415968,-0.0020697161,0.0035637004,9.7854261,-0.38997999,0.96664697,0.73932201,-0.080362,-0.66591001,-0.059225999,-0.37932931,-1.4627066,0.18130867
3410651787520,0.64997715,0,,-0.0060415968,-0.0020697161,0.0035637004,9.7854261,-0.38997999,0.96664697,0.73932201,-0.080362,-0.66591001,-0.059225999,-0.37932931,-1.4627066,0.18130867
3410653760992,0.65195062,0,,-0.0063867706,-1.9949113e-05,0.00063152997,9.7812166,-0.34237999,0.98895901,0.73931801,-0.080381997,-0.66591001,-0.059236001,-0.37950442,-1.4627082,0.18144068
3410655748960,0.65393859,0,,-0.0063867706,-1.9949113e-05,0.00063152997,9.7812166,-0.34237999,0.98895901,0.73931801,-0.080381997,-0.66591001,-0.059236001,-0.37950442,-1.4627082,0.18144068
3410657757120,0.65594675,0,,0.0027581439,0.0011618482,0.0013249143,9.7841654,-0.39754999,0.97400099,0.73931801,-0.080385,-0.66591001,-0.059241999,-0.37946384,-1.4627082,0.18138715
3410659830688,0.65802032,0,,0.0027581439,0.0011618482,0.0013249143,9.7841654,-0.39754999,0.97400099,0.73931801,-0.080385,-0.66591001,-0.059241999,-0.37946384,-1.4627082,0.18138715
3410661868320,0.66005795,0,,0.0027581439,0.0011618482,0.0013249143,9.7841654,-0.39754999,0.97400099,0.73931801,-0.080385,-0.66591001,-0.059241999,-0.37946384,-1.4627082,0.18138715
3410663844064,0.6620337,0,,0.0048208787,0.00094303633,0.002628623,9.7772913,-0.389011,0.97705299,0.73932302,-0.08038,-0.66590601,-0.059232,-0.37948554,-1.4626968,0.18143038
3410665828672,0.6640183,0,,0.0048208787,0.00094303633,0.002628623,9.7772913,-0.389011,0.97705299,0.73932302,-0.08038,-0.66590601,-0.059232,-0.37948554,-1.4626968,0.18143038
3410667757152,0.66594678,0,,0.0013752322,-0.0014742273,0.0005565506,9.7575464,-0.39055699,0.99199498,0.73932302,-0.080379002,-0.66590601,-0.059229001,-0.37950874,-1.462695,0.18146052
3410669791296,0.66798093,0,,0.0013752322,-0.0014742273,0.0005565506,9.7575464,-0.39055699,0.99199498,0.73932302,-0.080379002,-0.66590601,-0.059229001,-0.37950874,-1.462695,0.18146052
3410671781312,0.66997094,0,,0.0013752322,-0.0014742273,0.0005565506,9.7575464,-0.39055699,0.99199498,0.73932302,-0.080379002,-0.66590601,-0.059229001,-0.37950874,-1.462695,0.18146052
3410673779872,0.6719695,0,,0.0053590681,0.0032765763,0.0039685995,9.7408648,-0.39331499,0.99295801,0.739326,-0.080376998,-0.66590399,-0.059220999,-0.37955795,-1.462684,0.18152306
3410675817920,0.67400755,0,,0.0053590681,0.0032765763,0.0039685995,9.7408648,-0.39331499,0.99295801,0.739326,-0.080376998,-0.66590399,-0.059220999,-0.37955795,-1.462684,0.18152306
3410677798720,0.67598835,0,,0.0024649285,0.0036159382,0.0028071525,9.762949,-0.421514,0.99742103,0.73933703,-0.080371998,-0.66589397,-0.059209999,-0.37954629,-1.4626548,0.18153324
3410679833536,0.67802317,0,,0.0024649285,0.0036159382,0.0028071525,9.762949,-0.421514,0.99742103,0.73933703,-0.080371998,-0.66589397,-0.059209999,-0.37954629,-1.4626548,0.18153324
3410681798560,0.67998819,0,,0.0024649285,0.0036159382,0.0028071525,9.762949,-0.421514,0.99742103,0.73933703,-0.080371998,-0.66589397,-0.059209999,-0.37954629,-1.4626548,0.18153324
3410683769120,0.68195875,0,,-0.0059619402,-0.002718455,-1.3281955e-05,9.7791386,-0.407711,0.99073899,0.73933899,-0.080381997,-0.66588998,-0.059214998,-0.37959829,-1.4626436,0.18156369
3410685782016,0.68397165,0,,-0.0059619402,-0.002718455,-1.3281955e-05,9.7791386,-0.407711,0.99073899,0.73933899,-0.080381997,-0.66588998,-0.059214998,-0.37959829,-1.4626436,0.18156369
3410687765792,0.68595542,0,,0.000593761,-0.0026062303,-0.00061627576,9.7753077,-0.39495,1.000616,0.739335,-0.080389999,-0.665892,-0.059220999,-0.37966324,-1.462652,0.18160988
3410689775200,0.68796483,0,,0.000593761,-0.0026062303,-0.00061627576,9.7753077,-0.39495,1.000616,0.739335,-0.080389999,-0.665892,-0.059220999,-0.37966324,-1.462652,0.18160988
3410691763680,0.68995331,0,,0.000593761,-0.0026062303,-0.00061627576,9.7753077,-0.39495,1.000616,0.739335,-0.080389999,-0.665892,-0.059220999,-0.37966324,-1.462652,0.18160988
3410693773280,0.69196291,0,,-0.0020479345,-0.0038051667,0.00045139449,9.7638369,-0.409843,0.995956,0.73933101,-0.080390997,-0.665896,-0.059223,-0.37967895,-1.4626631,0.18162008
3410695842816,0.69403245,0,,-0.0020479345,-0.0038051667,0.00045139449,9.7638369,-0.409843,0.995956,0.73933101,-0.080390997,-0.665896,-0.059223,-0.37967895,-1.4626631,0.18162008
3410697839936,0.69602957,0,,0.0024373698,0.0010227106,-0.0021735108,9.7572546,-0.410142,1.0009871,0.73933101,-0.080390997,-0.665896,-0.059225999,-0.3796409,-1.4626637,0.18157958
3410699920800,0.69811043,0,,0.0024373698,0.0010227106,-0.0021735108,9.7572546,-0.410142,1.0009871,0.73933101,-0.080390997,-0.665896,-0.059225999,-0.3796409,-1.4626637,0.18157958
3410701759648,0.69994928,0,,0.0024373698,0.0010227106,-0.0021735108,9.7572546,-0.410142,1.0009871,0.73933101,-0.080390997,-0.665896,-0.059225999,-0.3796409,-1.4626637,0.18157958
3410703751680,0.70194131,0,,0.0028890609,0.0022369362,-0.00046977281,9.7649145,-0.394903,0.986256,0.73933703,-0.080383003,-0.66588998,-0.059223998,-0.379514,-1.4626491,0.18146488
3410705764000,0.70395363,0,,0.0028890609,0.0022369362,-0.00046977281,9.7649145,-0.394903,0.986256,0.73933703,-0.080383003,-0.66588998,-0.059223998,-0.379514,-1.4626491,0.18146488
3410707747552,0.70593718,0,,0.0044264166,0.0031205091,0.0018041818,9.7696314,-0.41000301,0.99646598,0.739344,-0.08038,-0.66588402,-0.059220999,-0.37946227,-1.4626315,0.18142377
3410709763776,0.70795341,0,,0.0044264166,0.0031205091,0.0018041818,9.7696314,-0.41000301,0.99646598,0.739344,-0.08038,-0.66588402,-0.059220999,-0.37946227,-1.4626315,0.18142377
3410711744096,0.70993373,0,,0.0044264166,0.0031205091,0.0018041818,9.7696314,-0.41000301,0.99646598,0.739344,-0.08038,-0.66588402,-0.059220999,-0.37946227,-1.4626315,0.18142377
3410713758048,0.71194768,0,,0.0069292887,-0.00069224991,0.00064851197,9.7664604,-0.41525599,0.984272,0.73934901,-0.080372997,-0.66588002,-0.059209,-0.37948188,-1.4626178,0.18147029
3410715745376,0.71393501,0,,0.0069292887,-0.00069224991,0.00064851197,9.7664604,-0.41525599,0.984272,0.73934901,-0.080372997,-0.66588002,-0.059209,-0.37948188,-1.4626178,0.18147029
3410717755264,0.7159449,0,,0.0016492314,-0.0045033856,-0.00054192474,9.7953129,-0.41226,0.98447102,0.73934799,-0.080363996,-0.665883,-0.059202999,-0.37944639,-1.462625,0.18145491
3410719831520,0.71802115,0,,0.0016492314,-0.0045033856,-0.00054192474,9.7953129,-0.41226,0.98447102,0.73934799,-0.080363996,-0.665883,-0.059202999,-0.37944639,-1.462625,0.18145491
3410721753984,0.71994362,0,,0.0016492314,-0.0045033856,-0.00054192474,9.7953129,-0.41226,0.98447102,0.73934799,-0.080363996,-0.665883,-0.059202999,-0.37944639,-1.462625,0.18145491
3410723740224,0.72192986,0,,-0.0012142255,-0.0010037214,-0.0011443251,9.7819214,-0.38656399,0.97516698,0.73934299,-0.080366001,-0.665887,-0.059206001,-0.37947602,-1.4626376,0.18147793
3410725751168,0.7239408,0,,-0.0012142255,-0.0010037214,-0.0011443251,9.7819214,-0.38656399,0.97516698,0.73934299,-0.080366001,-0.665887,-0.059206001,-0.37947602,-1.4626376,0.18147793
3410727737472,0.7259271,0,,-0.0027236562,-0.0012708091,-0.00098684409,9.7793617,-0.37597701,0.98083401,0.73934299,-0.080366001,-0.66588801,-0.059211001,-0.37941061,-1.4626402,0.18140495
3410729793984,0.72798362,0,,-0.0027236562,-0.0012708091,-0.00098684409,9.7793617,-0.37597701,0.98083401,0.73934299,-0.080366001,-0.66588801,-0.059211001,-0.37941061,-1.4626402,0.18140495
3410731764800,0.72995443,0,,-0.0027236562,-0.0012708091,-0.00098684409,9.7793617,-0.37597701,0.98083401,0.73934299,-0.080366001,-0.66588801,-0.059211001,-0.37941061,-1.4626402,0.18140495
3410733770496,0.73196013,0,,-0.0032845874,-0.0016535947,0.00061283745,9.7716532,-0.372437,0.97711301,0.73934001,-0.080371,-0.66588902,-0.059220999,-0.37938091,-1.4626476,0.1813547
3410735760704,0.73395034,0,,-0.0032845874,-0.0016535947,0.00061283745,9.7716532,-0.372437,0.97711301,0.73934001,-0.080371,-0.66588902,-0.059220999,-0.37938091,-1.4626476,0.1813547
3410737771328,0.73596096,0,,-0.00043987534,0.0029635342,0.0012393409,9.7637119,-0.359227,0.97763503,0.73934102,-0.080374002,-0.66588801,-0.059222002,-0.37939513,-1.4626454,0.18136352
3410739813984,0.73800362,0,,-0.00043987534,0.0029635342,0.0012393409,9.7637119,-0.359227,0.97763503,0.73934102,-0.080374002,-0.66588801,-0.059222002,-0.37939513,-1.4626454,0.18136352
3410741765184,0.73995482,0,,-0.00043987534,0.0029635342,0.0012393409,9.7637119,-0.359227,0.97763503,0.73934102,-0.080374002,-0.66588801,-0.059222002,-0.37939513,-1.4626454,0.18136352
3410743762912,0.74195254,0,,0.0039713571,0.0018182316,0.0018525798,9.7626429,-0.35188401,0.97978401,0.73934698,-0.080371,-0.66588098,-0.059220001,-0.3793386,-1.4626299,0.1813122
3410745766912,0.74395654,0,,0.0039713571,0.0018182316,0.0018525798,9.7626429,-0.35188401,0.97978401,0.73934698,-0.080371,-0.66588098,-0.059220001,-0.3793386,-1.4626299,0.1813122
3410747756352,0.74594598,0,,-0.0060371636,-0.0037496304,0.0019819436,9.7734842,-0.39398101,0.97071099,0.73934603,-0.080374002,-0.66588199,-0.059220001,-0.37938364,-1.4626271,0.18135346
3410749766144,0.74795578,0,,-0.0060371636,-0.0037496304,0.0019819436,9.7734842,-0.39398101,0.97071099,0.73934603,-0.080374002,-0.66588199,-0.059220001,-0.37938364,-1.4626271,0.18135346
3410751847712,0.75003734,0,,-0.0060371636,-0.0037496304,0.0019819436,9.7734842,-0.39398101,0.97071099,0.73934603,-0.080374002,-0.66588199,-0.059220001,-0.37938364,-1.4626271,0.18135346
3410753798720,0.75198835,0,,-0.0026829202,-0.0020600645,0.00010901327,9.7666121,-0.38279501,0.97791702,0.73934001,-0.080388002,-0.665887,-0.059225999,-0.37952922,-1.462641,0.18147116
3410755786176,0.75397581,0,,-0.0026829202,-0.0020600645,0.00010901327,9.7666121,-0.38279501,0.97791702,0.73934001,-0.080388002,-0.665887,-0.059225999,-0.37952922,-1.462641,0.18147116
3410757764192,0.75595382,0,,-0.0041505501,-0.0005541944,-0.0013048605,9.7585287,-0.39432901,0.97387803,0.73933899,-0.080389999,-0.665887,-0.059232999,-0.37947742,-1.4626454,0.18140601
3410760066144,0.75825578,0,,-0.0041505501,-0.0005541944,-0.0013048605,9.7585287,-0.39432901,0.97387803,0.73933899,-0.080389999,-0.665887,-0.059232999,-0.37947742,-1.4626454,0.18140601
3410761765504,0.75995514,0,,-0.0041505501,-0.0005541944,-0.0013048605,9.7585287,-0.39432901,0.97387803,0.73933899,-0.080389999,-0.665887,-0.059232999,-0.37947742,-1.4626454,0.18140601
3410763747296,0.76193693,0,,-0.002101551,-0.0030931773,-0.0010398497,9.7542057,-0.400177,0.97556597,0.73933703,-0.080395997,-0.665887,-0.059243001,-0.37944087,-1.4626476,0.18134724
3410765757888,0.76394752,0,,-0.002101551,-0.0030931773,-0.0010398497,9.7542057,-0.400177,0.97556597,0.73933703,-0.080395997,-0.665887,-0.059243001,-0.37944087,-1.4626476,0.18134724
3410767745312,0.76593494,0,,-0.0021152169,-0.005920244,-0.0017437062,9.7561522,-0.38969001,0.98688698,0.73932898,-0.080398999,-0.66589499,-0.059250001,-0.37946234,-1.4626713,0.18135436
3410769751584,0.76794122,0,,-0.0021152169,-0.005920244,-0.0017437062,9.7561522,-0.38969001,0.98688698,0.73932898,-0.080398999,-0.66589499,-0.059250001,-0.37946234,-1.4626713,0.18135436
3410771742016,0.76993165,0,,-0.0021152169,-0.005920244,-0.0017437062,9.7561522,-0.38969001,0.98688698,0.73932898,-0.080398999,-0.66589499,-0.059250001,-0.37946234,-1.4626713,0.18135436
3410773749792,0.77193942,0,,0.0050005255,-0.0019394099,0.0017399885,9.767662,-0.37542799,0.99747998,0.73932397,-0.080395997,-0.66590101,-0.059250001,-0.37945994,-1.4626889,0.18135726
3410775734912,0.77392454,0,,0.0050005255,-0.0019394099,0.0017399885,9.767662,-0.37542799,0.99747998,0.73932397,-0.080395997,-0.66590101,-0.059250001,-0.37945994,-1.4626889,0.18135726
3410777759264,0.7759489,0,,0.0039882694,-0.00052829372,0.00049686033,9.7565708,-0.39599499,0.99834299,0.73932499,-0.080389999,-0.66590202,-0.059241001,-0.37949962,-1.4626868,0.18141733
3410779820544,0.77801018,0,,0.0039882694,-0.00052829372,0.00049686033,9.7565708,-0.39599499,0.99834299,0.73932499,-0.080389999,-0.66590202,-0.059241001,-0.37949962,-1.4626868,0.18141733
3410781748960,0.77993859,0,,0.0045981047,-0.0010172826,0.0017158681,9.7773552,-0.42868701,0.992302,0.739326,-0.080386996,-0.66590202,-0.059232999,-0.37954167,-1.462684,0.18147514
3410783733152,0.78192278,0,,0.0045981047,-0.0010172826,0.0017158681,9.7773552,-0.42868701,0.992302,0.739326,-0.080386996,-0.66590202,-0.059232999,-0.37954167,-1.462684,0.18147514
3410785744000,0.78393363,0,,0.0045981047,-0.0010172826,0.0017158681,9.7773552,-0.42868701,0.992302,0.739326,-0.080386996,-0.66590202,-0.059232999,-0.37954167,-1.462684,0.18147514
3410787764448,0.78595408,0,,0.0026882957,-0.0018642037,1.3648475e-05,9.7762794,-0.40233099,0.994412,0.739326,-0.080384001,-0.66590297,-0.059225,-0.3795946,-1.4626836,0.18154361
3410789772960,0.78796259,0,,0.0026882957,-0.0018642037,1.3648475e-05,9.7762794,-0.40233099,0.994412,0.739326,-0.080384001,-0.66590297,-0.059225,-0.3795946,-1.4626836,0.18154361
3410791866304,0.79005594,0,,0.0026882957,-0.0018642037,1.3648475e-05,9.7762794,-0.40233099,0.994412,0.739326,-0.080384001,-0.66590297,-0.059225,-0.3795946,-1.4626836,0.18154361
3410793872608,0.79206224,0,,0.00067364471,0.0019919617,0.00079710934,9.8026552,-0.43094099,0.99586302,0.73932898,-0.08038,-0.66589999,-0.059223998,-0.3795399,-1.4626762,0.18149536
3410795833216,0.79402285,0,,0.00067364471,0.0019919617,0.00079710934,9.8026552,-0.43094099,0.99586302,0.73932898,-0.08038,-0.66589999,-0.059223998,-0.3795399,-1.4626762,0.18149536
3410797779776,0.79596941,0,,0.0022274066,-0.0014179055,0.0024361131,9.7843504,-0.42887601,0.98829502,0.73933101,-0.080383003,-0.66589701,-0.059222002,-0.37958964,-1.4626669,0.18154438
3410799830752,0.79802038,0,,0.0022274066,-0.0014179055,0.0024361131,9.7843504,-0.42887601,0.98829502,0.73933101,-0.080383003,-0.66589701,-0.059222002,-0.37958964,-1.4626669,0.18154438
3410801763680,0.79995331,0,,0.0022274066,-0.0014179055,0.0024361131,9.7843504,-0.42887601,0.98829502,0.73933101,-0.080383003,-0.66589701,-0.059222002,-0.37958964,-1.4626669,0.18154438
3410803752352,0.80194198,0,,0.0050065291,0.00016959364,-0.0014207329,9.7557859,-0.37092301,1.0029989,0.73933297,-0.080379002,-0.66589701,-0.059213001,-0.37962143,-1.4626637,0.18159466
3410805767872,0.8039575,0,,0.0050065291,0.00016959364,-0.0014207329,9.7557859,-0.37092301,1.0029989,0.73933297,-0.080379002,-0.66589701,-0.059213001,-0.37962143,-1.4626637,0.18159466
3410807748288,0.80593792,0,,0.0022257834,0.0018506249,-0.0036185912,9.7431221,-0.38194701,0.99666899,0.73933703,-0.080367997,-0.66589302,-0.059214,-0.37944047,-1.4626559,0.18142898
3410809790816,0.80798045,0,,0.0022257834,0.0018506249,-0.0036185912,9.7431221,-0.38194701,0.99666899,0.73933703,-0.080367997,-0.66589302,-0.059214,-0.37944047,-1.4626559,0.18142898
3410811750208,0.80993984,0,,0.0022257834,0.0018506249,-0.0036185912,9.7431221,-0.38194701,0.99666899,0.73933703,-0.080367997,-0.66589302,-0.059214,-0.37944047,-1.4626559,0.18142898
3410813756128,0.81194576,0,,0.0013385105,-0.0018348471,0.0020809037,9.7521048,-0.391516,0.97493601,0.73933899,-0.080362998,-0.66589099,-0.059216,-0.379337,-1.4626541,0.18132956
3410815750304,0.81393994,0,,0.0013385105,-0.0018348471,0.0020809037,9.7521048,-0.391516,0.97493601,0.73933899,-0.080362998,-0.66589099,-0.059216,-0.379337,-1.4626541,0.18132956
3410817758048,0.81594768,0,,0.00029035296,-0.0016854121,0.0022102151,9.7548084,-0.35048401,0.99420899,0.73933798,-0.080366001,-0.66589302,-0.059211001,-0.37944769,-1.4626535,0.18144285
3410819830752,0.81802038,0,,0.00029035296,-0.0016854121,0.0022102151,9.7548084,-0.35048401,0.99420899,0.73933798,-0.080366001,-0.66589302,-0.059211001,-0.37944769,-1.4626535,0.18144285
3410821802976,0.81999261,0,,0.00029035296,-0.0016854121,0.0022102151,9.7548084,-0.35048401,0.99420899,0.73933798,-0.080366001,-0.66589302,-0.059211001,-0.37944769,-1.4626535,0.18144285
3410823740000,0.82192963,0,,0.0039839584,-0.0003890339,0.00087135562,9.7717733,-0.39038199,0.97431201,0.73933703,-0.080363996,-0.66589397,-0.059206001,-0.37949639,-1.4626559,0.18150035
3410825789856,0.82397949,0,,0.0039839584,-0.0003890339,0.00087135562,9.7717733,-0.39038199,0.97431201,0.73933703,-0.080363996,-0.66589397,-0.059206001,-0.37949639,-1.4626559,0.18150035
3410827749568,0.8259392,0,,-0.0011106927,-0.00079166391,-0.0006503795,9.7905731,-0.43073601,0.968252,0.73933899,-0.080360003,-0.66589302,-0.059204001,-0.37945182,-1.4626532,0.18146543
3410829754976,0.82794461,0,,-0.0011106927,-0.00079166391,-0.0006503795,9.7905731,-0.43073601,0.968252,0.73933899,-0.080360003,-0.66589302,-0.059204001,-0.37945182,-1.4626532,0.18146543
3410831732800,0.82992243,0,,-0.0011106927,-0.00079166391,-0.0006503795,9.7905731,-0.43073601,0.968252,0.73933899,-0.080360003,-0.66589302,-0.059204001,-0.37945182,-1.4626532,0.18146543
3410833757216,0.83194685,0,,-0.0034479853,-0.0037801039,0.0013910274,9.8035288,-0.36676401,0.99442899,0.739335,-0.080366999,-0.665896,-0.059207,-0.37952176,-1.4626608,0.18152051
3410835732416,0.83392205,0,,-0.0034479853,-0.0037801039,0.0013910274,9.8035288,-0.36676401,0.99442899,0.739335,-0.080366999,-0.665896,-0.059207,-0.37952176,-1.4626608,0.18152051
3410837741696,0.83593133,0,,-0.0016153023,0.0038762018,-0.0014059151,9.7676802,-0.36668101,0.97130001,0.73933297,-0.080372997,-0.66589701,-0.059214998,-0.37952789,-1.4626637,0.18150653
3410839820064,0.8380097,0,,-0.0016153023,0.0038762018,-0.0014059151,9.7676802,-0.36668101,0.97130001,0.73933297,-0.080372997,-0.66589701,-0.059214998,-0.37952789,-1.4626637,0.18150653
3410841745856,0.83993549,0,,-0.0016153023,0.0038762018,-0.0014059151,9.7676802,-0.36668101,0.97130001,0.73933297,-0.080372997,-0.66589701,-0.059214998,-0.37952789,-1.4626637,0.18150653
3410843763584,0.84195322,0,,0.0023574162,0.0083231435,-0.0013961935,9.7834854,-0.400617,0.96716601,0.73934603,-0.080370001,-0.665883,-0.059218999,-0.37934356,-1.4626327,0.18132147
3410845807904,0.84399754,0,,0.0023574162,0.0083231435,-0.0013961935,9.7834854,-0.400617,0.96716601,0.73934603,-0.080370001,-0.665883,-0.059218999,-0.37934356,-1.4626327,0.18132147
3410847760000,0.84594963,0,,0.0023574162,0.0083231435,-0.0013961935,9.7834854,-0.400617,0.96716601,0.73934603,-0.080370001,-0.665883,-0.059218999,-0.37934356,-1.4626327,0.18132147
3410849766048,0.84795568,0,,0.0023574162,0.0083231435,-0.0013961935,9.7834854,-0.400617,0.96716601,0.73934603,-0.080370001,-0.665883,-0.059218999,-0.37934356,-1.4626327,0.18132147
3410851757280,0.84994691,0,,0.0023574162,0.0083231435,-0.0013961935,9.7834854,-0.400617,0.96716601,0.73934603,-0.080370001,-0.665883,-0.059218999,-0.37934356,-1.4626327,0.18132147
3410853762784,0.85195242,0,,-0.00061866689,0.00018521434,0.0013524557,9.7493086,-0.38576701,0.98428798,0.73935699,-0.080363996,-0.66587102,-0.059227999,-0.37907991,-1.4626073,0.18105349
3410855753248,0.85394288,0,,-0.00061866689,0.00018521434,0.0013524557,9.7493086,-0.38576701,0.98428798,0.73935699,-0.080363996,-0.66587102,-0.059227999,-0.37907991,-1.4626073,0.18105349
3410857767680,0.85595731,0,,-0.0026240501,-0.0005837428,0.0021092303,9.769824,-0.41715699,0.96892297,0.73935801,-0.080369003,-0.665869,-0.059227999,-0.37912002,-1.4625999,0.1810867
3410859797920,0.85798755,0,,-0.0026240501,-0.0005837428,0.0021092303,9.769824,-0.41715699,0.96892297,0.73935801,-0.080369003,-0.665869,-0.059227999,-0.37912002,-1.4625999,0.1810867
3410861756640,0.85994627,0,,-0.0026240501,-0.0005837428,0.0021092303,9.769824,-0.41715699,0.96892297,0.73935801,-0.080369003,-0.665869,-0.059227999,-0.37912002,-1.4625999,0.1810867
3410863755936,0.86194557,0,,-0.00049401544,-0.00011934561,-0.00024553292,9.7556715,-0.36538199,0.99492401,0.73935801,-0.080375001,-0.66586798,-0.05923,-0.37918763,-1.462598,0.18114249
3410865777472,0.8639671,0,,-0.00049401544,-0.00011934561,-0.00024553292,9.7556715,-0.36538199,0.99492401,0.73935801,-0.080375001,-0.66586798,-0.05923,-0.37918763,-1.462598,0.18114249
3410867747936,0.86593757,0,,-0.0021646795,-0.0025792476,-0.003365309,9.7523832,-0.40572599,0.99101597,0.73935699,-0.080372997,-0.66586798,-0.059239998,-0.37904615,-1.4626027,0.18098989
3410869766336,0.86795597,0,,-0.0021646795,-0.0025792476,-0.003365309,9.7523832,-0.40572599,0.99101597,0.73935699,-0.080372997,-0.66586798,-0.059239998,-0.37904615,-1.4626027,0.18098989
3410871754880,0.86994451,0,,0.0012817872,-0.0030362096,0.0025714807,9.751977,-0.42721599,0.98297203,0.739353,-0.080372997,-0.66587198,-0.059241001,-0.37905128,-1.4626133,0.180994
3410873815360,0.87200499,0,,0.0012817872,-0.0030362096,0.0025714807,9.751977,-0.42721599,0.98297203,0.739353,-0.080372997,-0.66587198,-0.059241001,-0.37905128,-1.4626133,0.180994
3410875773568,0.8739632,0,,0.0012817872,-0.0030362096,0.0025714807,9.751977,-0.42721599,0.98297203,0.739353,-0.080372997,-0.66587198,-0.059241001,-0.37905128,-1.4626133,0.180994
3410877761920,0.87595155,0,,0.0010330429,0.00082817619,-0.00012273155,9.7414322,-0.42224401,0.977588,0.73935199,-0.080375999,-0.665874,-0.059234999,-0.37917325,-1.4626143,0.18112039
3410879829920,0.87801955,0,,0.0010330429,0.00082817619,-0.00012273155,9.7414322,-0.42224401,0.977588,0.73935199,-0.080375999,-0.665874,-0.059234999,-0.37917325,-1.4626143,0.18112039
3410881747840,0.87993747,0,,0.0010330429,0.00082817619,-0.00012273155,9.7414322,-0.42224401,0.977588,0.73935199,-0.080375999,-0.665874,-0.059234999,-0.37917325,-1.4626143,0.18112039
3410883734816,0.88192445,0,,-0.0004172035,0.0008801172,0.0026359183,9.7686548,-0.37505001,0.99799502,0.73935598,-0.080378003,-0.665869,-0.059232999,-0.37920411,-1.4626018,0.1811493
3410885744448,0.88393408,0,,-0.0004172035,0.0008801172,0.0026359183,9.7686548,-0.37505001,0.99799502,0.73935598,-0.080378003,-0.665869,-0.059232999,-0.37920411,-1.4626018,0.1811493
3410887732288,0.88592192,0,,-0.00046647415,-9.3235492e-05,0.0018240262,9.7950678,-0.423089,0.99411398,0.73935902,-0.080381997,-0.66586602,-0.059234001,-0.37921633,-1.4625913,0.18115488
3410889744672,0.8879343,0,,-0.00046647415,-9.3235492e-05,0.0018240262,9.7950678,-0.423089,0.99411398,0.73935902,-0.080381997,-0.66586602,-0.059234001,-0.37921633,-1.4625913,0.18115488
3410891733888,0.88992352,0,,-0.00046647415,-9.3235492e-05,0.0018240262,9.7950678,-0.423089,0.99411398,0.73935902,-0.080381997,-0.66586602,-0.059234001,-0.37921633,-1.4625913,0.18115488
3410893739264,0.8919289,0,,0.00059491293,-0.0022067595,0.0027769236,9.808177,-0.431292,0.99558401,0.73935801,-0.080389999,-0.66586602,-0.059229001,-0.37939147,-1.4625896,0.18132535
3410895944800,0.89413443,0,,0.00059491293,-0.0022067595,0.0027769236,9.808177,-0.431292,0.99558401,0.73935801,-0.080389999,-0.66586602,-0.059229001,-0.37939147,-1.4625896,0.18132535
3410897793568,0.8959832,0,,0.0030705054,-0.0038015017,0.0015272503,9.7585058,-0.41446,0.99277997,0.73935699,-0.080393001,-0.66586798,-0.059220999,-0.37952719,-1.462589,0.18146929
3410899974272,0.8981639,0,,0.0030705054,-0.0038015017,0.0015272503,9.7585058,-0.41446,0.99277997,0.73935699,-0.080393001,-0.66586798,-0.059220999,-0.37952719,-1.462589,0.18146929
3410901770240,0.89995987,0,,0.0030705054,-0.0038015017,0.0015272503,9.7585058,-0.41446,0.99277997,0.73935699,-0.080393001,-0.66586798,-0.059220999,-0.37952719,-1.462589,0.18146929
3410903757216,0.90194685,0,,0.0018688113,-0.0028842263,0.0014146941,9.7798586,-0.38298699,0.98558301,0.739353,-0.080394,-0.66587198,-0.059214998,-0.37964789,-1.4625974,0.18159691
3410905819072,0.9040087,0,,0.0018688113,-0.0028842263,0.0014146941,9.7798586,-0.38298699,0.98558301,0.739353,-0.080394,-0.66587198,-0.059214998,-0.37964789,-1.4625974,0.18159691
3410907861504,0.90605114,0,,-0.0016291252,-0.0026707202,0.00053265702,9.787961,-0.41250598,0.98545098,0.73935097,-0.080394,-0.66587502,-0.059211999,-0.37969666,-1.4626023,0.18164971
3410909844128,0.90803376,0,,-0.0016291252,-0.0026707202,0.00053265702,9.787961,-0.41250598,0.98545098,0.73935097,-0.080394,-0.66587502,-0.059211999,-0.37969666,-1.4626023,0.18164971
3410911820160,0.91000979,0,,-0.0016291252,-0.0026707202,0.00053265702,9.787961,-0.41250598,0.98545098,0.73935097,-0.080394,-0.66587502,-0.059211999,-0.37969666,-1.4626023,0.18164971
3410913788000,0.91197763,0,,0.0020154888,0.00073637184,-0.0013532061,9.7578554,-0.383495,0.97936201,0.73934901,-0.080397002,-0.66587698,-0.059214,-0.37973002,-1.4626073,0.18167602
3410915818624,0.91400826,0,,0.0020154888,0.00073637184,-0.0013532061,9.7578554,-0.383495,0.97936201,0.73934901,-0.080397002,-0.66587698,-0.059214,-0.37973002,-1.4626073,0.18167602
3410917782944,0.91597258,0,,-2.5761059e-05,-0.00014186037,-0.0017347002,9.7553272,-0.389658,0.97639197,0.73935002,-0.080390997,-0.66587597,-0.059218999,-0.37958165,-1.4626073,0.18152865
3410919787168,0.9179768,0,,-2.5761059e-05,-0.00014186037,-0.0017347002,9.7553272,-0.389658,0.97639197,0.73935002,-0.080390997,-0.66587597,-0.059218999,-0.37958165,-1.4626073,0.18152865
3410921746432,0.91993606,0,,-2.5761059e-05,-0.00014186037,-0.0017347002,9.7553272,-0.389658,0.97639197,0.73935002,-0.080390997,-0.66587597,-0.059218999,-0.37958165,-1.4626073,0.18152865
3410923739680,0.92192931,0,,-0.0008831366,0.0010907086,-0.00043717008,9.793992,-0.37542999,0.98293298,0.73935199,-0.080392003,-0.66587299,-0.059223998,-0.37952106,-1.4626018,0.18145969
3410925752928,0.92394256,0,,-0.0008831366,0.0010907086,-0.00043717008,9.793992,-0.37542999,0.98293298,0.73935199,-0.080392003,-0.66587299,-0.059223998,-0.37952106,-1.4626018,0.18145969
3410927729088,0.92591872,0,,0.0010448937,-0.00061711353,0.0020047201,9.7599411,-0.35871601,0.99060202,0.73935503,-0.080392003,-0.66587001,-0.059223,-0.37951094,-1.4625957,0.18145037
3410929811168,0.9280008,0,,0.0010448937,-0.00061711353,0.0020047201,9.7599411,-0.35871601,0.99060202,0.73935503,-0.080392003,-0.66587001,-0.059223,-0.37951094,-1.4625957,0.18145037
3410931729088,0.92991872,0,,0.0010448937,-0.00061711353,0.0020047201,9.7599411,-0.35871601,0.99060202,0.73935503,-0.080392003,-0.66587001,-0.059223,-0.37951094,-1.4625957,0.18145037
3410933730240,0.93191987,0,,0.0038650839,0.0048692592,0.001767268,9.7525072,-0.37165099,0.96763599,0.73935902,-0.080389,-0.66586602,-0.059218001,-0.37949899,-1.4625841,0.18145044
3410935730176,0.93391981,0,,0.0038650839,0.0048692592,0.001767268,9.7525072,-0.37165099,0.96763599,0.73935902,-0.080389,-0.66586602,-0.059218001,-0.37949899,-1.4625841,0.18145044
3410937808352,0.93599798,0,,-0.0013361542,0.00089613927,-0.0019331092,9.7401924,-0.35143101,0.967022,0.73936397,-0.080385,-0.66586101,-0.059218999,-0.37939706,-1.4625712,0.18135217
3410939791456,0.93798109,0,,-0.0013361542,0.00089613927,-0.0019331092,9.7401924,-0.35143101,0.967022,0.73936397,-0.080385,-0.66586101,-0.059218999,-0.37939706,-1.4625712,0.18135217
3410941760096,0.93994973,0,,-0.0013361542,0.00089613927,-0.0019331092,9.7401924,-0.35143101,0.967022,0.73936397,-0.080385,-0.66586101,-0.059218999,-0.37939706,-1.4625712,0.18135217
3410943788256,0.94197789,0,,0.0022126759,0.0010272135,0.0025613404,9.764226,-0.35848001,0.97685498,0.73936802,-0.080380999,-0.66585702,-0.059222002,-0.3792855,-1.4625641,0.18124246
3410945780608,0.94397024,0,,0.0022126759,0.0010272135,0.0025613404,9.764226,-0.35848001,0.97685498,0.73936802,-0.080380999,-0.66585702,-0.059222002,-0.3792855,-1.4625641,0.18124246
3410947834720,0.94602435,0,,0.0015877261,-0.0038421852,0.0045345399,9.7784863,-0.40898401,0.96682101,0.73936701,-0.080383003,-0.66585797,-0.059211999,-0.37942715,-1.4625608,0.18139591
3410949821920,0.94801155,0,,0.0015877261,-0.0038421852,0.0045345399,9.7784863,-0.40898401,0.96682101,0.73936701,-0.080383003,-0.66585797,-0.059211999,-0.37942715,-1.4625608,0.18139591
3410951802816,0.94999245,0,,0.0015877261,-0.0038421852,0.0045345399,9.7784863,-0.40898401,0.96682101,0.73936701,-0.080383003,-0.66585797,-0.059211999,-0.37942715,-1.4625608,0.18139591
3410953759680,0.95194931,0,,-0.00023478169,-0.0037286515,0.0014904938,9.779871,-0.41825399,0.97206402,0.73936301,-0.080386996,-0.66586298,-0.059204999,-0.37959919,-1.4625697,0.18157238
3410955731776,0.95392141,0,,-0.00023478169,-0.0037286515,0.0014904938,9.779871,-0.41825399,0.97206402,0.73936301,-0.080386996,-0.66586298,-0.059204999,-0.37959919,-1.4625697,0.18157238
3410957762528,0.95595216,0,,-0.0042071685,-0.0031593077,-0.0021141871,9.7737036,-0.389736,0.982216,0.73935598,-0.080393001,-0.665869,-0.059211001,-0.37966803,-1.4625869,0.18162389
3410959911968,0.9581016,0,,-0.0042071685,-0.0031593077,-0.0021141871,9.7737036,-0.389736,0.982216,0.73935598,-0.080393001,-0.665869,-0.059211001,-0.37966803,-1.4625869,0.18162389
3410961802784,0.95999242,0,,-0.0042071685,-0.0031593077,-0.0021141871,9.7737036,-0.389736,0.982216,0.73935598,-0.080393001,-0.665869,-0.059211001,-0.37966803,-1.4625869,0.18162389
3410963772480,0.96196211,0,,-0.002809282,0.00028789207,0.00054702109,9.7846937,-0.409439,0.99569499,0.73935401,-0.080398999,-0.66587001,-0.059218001,-0.37965851,-1.4625913,0.18159644
3410965759520,0.96394915,0,,-0.002809282,0.00028789207,0.00054702109,9.7846937,-0.409439,0.99569499,0.73935401,-0.080398999,-0.66587001,-0.059218001,-0.37965851,-1.4625913,0.18159644
3410967749568,0.9659392,0,,-0.0025117906,0.0020630489,-1.9024089e-06,9.775363,-0.40948001,1.001523,0.73935902,-0.080404997,-0.66586399,-0.059225,-0.37962106,-1.4625781,0.18153914
3410969753504,0.96794314,0,,-0.0025117906,0.0020630489,-1.9024089e-06,9.775363,-0.40948001,1.001523,0.73935902,-0.080404997,-0.66586399,-0.059225,-0.37962106,-1.4625781,0.18153914
3410971756896,0.96994653,0,,-0.0025117906,0.0020630489,-1.9024089e-06,9.775363,-0.40948001,1.001523,0.73935902,-0.080404997,-0.66586399,-0.059225,-0.37962106,-1.4625781,0.18153914
3410973752960,0.97194259,0,,0.0016640667,0.00012534955,-0.0032876942,9.7558241,-0.32971901,1.014564,0.73936099,-0.080406003,-0.66586101,-0.05923,-0.37956177,-1.4625737,0.18147242
3410975788864,0.9739785,0,,0.0016640667,0.00012534955,-0.0032876942,9.7558241,-0.32971901,1.014564,0.73936099,-0.080406003,-0.66586101,-0.05923,-0.37956177,-1.4625737,0.18147242
3410977807968,0.9759976,0,,0.0050005775,0.00074639004,0.0012187808,9.7254486,-0.368045,0.99319601,0.73936301,-0.080394,-0.66586,-0.059230998,-0.37937472,-1.4625709,0.18130033
3410979809216,0.97799885,0,,0.0050005775,0.00074639004,0.0012187808,9.7254486,-0.368045,0.99319601,0.73936301,-0.080394,-0.66586,-0.059230998,-0.37937472,-1.4625709,0.18130033
3410981772928,0.97996256,0,,0.0050005775,0.00074639004,0.0012187808,9.7254486,-0.368045,0.99319601,0.73936301,-0.080394,-0.66586,-0.059230998,-0.37937472,-1.4625709,0.18130033
3410983771936,0.98196157,0,,0.0093030937,0.008051291,0.0026078186,9.8157721,-0.49765399,0.981861,0.73937398,-0.080383003,-0.66584998,-0.059218999,-0.37929746,-1.4625416,0.18125518
3410985770848,0.98396048,0,,0.0093030937,0.008051291,0.0026078186,9.8157721,-0.49765399,0.981861,0.73937398,-0.080383003,-0.66584998,-0.059218999,-0.37929746,-1.4625416,0.18125518
3410987881120,0.98607075,0,,0.0080377125,0.0050371076,0.00088701125,9.8094578,-0.47364599,0.99001402,0.73938799,-0.080374002,-0.66583699,-0.059200998,-0.37929659,-1.4625014,0.18129303
3410989885440,0.98807507,0,,0.0080377125,0.0050371076,0.00088701125,9.8094578,-0.47364599,0.99001402,0.73938799,-0.080374002,-0.66583699,-0.059200998,-0.37929659,-1.4625014,0.18129303
3410991820672,0.9900103,0,,0.0080377125,0.0050371076,0.00088701125,9.8094578,-0.47364599,0.99001402,0.73938799,-0.080374002,-0.66583699,-0.059200998,-0.37929659,-1.4625014,0.18129303
3410993761408,0.99195104,0,,0.0018451795,-0.0018651112,-0.00031651546,9.7877913,-0.379774,0.99981701,0.73939401,-0.080369003,-0.66583198,-0.059193,-0.37929093,-1.4624876,0.18130643
3410995738752,0.99392838,0,,0.0018451795,-0.0018651112,-0.00031651546,9.7877913,-0.379774,0.99981701,0.73939401,-0.080369003,-0.66583198,-0.059193,-0.37929093,-1.4624876,0.18130643
3410997742944,0.99593258,0,,0.00076110316,-0.0037859683,-0.0030303803,9.7986403,-0.43383101,0.968669,0.73939097,-0.080365002,-0.66583598,-0.059193999,-0.37924166,-1.462499,0.18126135
3410999788480,0.99797811,0,,0.00076110316,-0.0037859683,-0.0030303803,9.7986403,-0.43383101,0.968669,0.73939097,-0.080365002,-0.66583598,-0.059193999,-0.37924166,-1.462499,0.18126135
3411001737888,0.99992752,0,,0.00076110316,-0.0037859683,-0.0030303803,9.7986403,-0.43383101,0.968669,0.73939097,-0.080365002,-0.66583598,-0.059193999,-0.37924166,-1.462499,0.18126135
3411003727360,1.001917,0,,-0.0018768398,-0.0026503699,-0.0012300731,9.7927132,-0.38870001,0.99308503,0.73938501,-0.080366999,-0.665842,-0.059199002,-0.37924103,-1.4625174,0.18125055
3411005729504,1.0039191,0,,-0.0018768398,-0.0026503699,-0.0012300731,9.7927132,-0.38870001,0.99308503,0.73938501,-0.080366999,-0.665842,-0.059199002,-0.37924103,-1.4625174,0.18125055
3411007737824,1.0059275,0,,-0.00059667572,-0.00094045321,-0.00018345155,9.7213211,-0.31322801,1.0042,0.73938298,-0.080367997,-0.66584301,-0.059202999,-0.37922895,-1.4625218,0.18123191
3411009790624,1.0079803,0,,-0.00059667572,-0.00094045321,-0.00018345155,9.7213211,-0.31322801,1.0042,0.73938298,-0.080367997,-0.66584301,-0.059202999,-0.37922895,-1.4625218,0.18123191
3411011760896,1.0099505,0,,-0.00059667572,-0.00094045321,-0.00018345155,9.7213211,-0.31322801,1.0042,0.73938298,-0.080367997,-0.66584301,-0.059202999,-0.37922895,-1.4625218,0.18123191
3411013772896,1.0119625,0,,-0.005184099,-0.002866494,0.0005427625,9.7171183,-0.34559,0.97212398,0.73938,-0.080372997,-0.66584498,-0.059209999,-0.37923094,-1.4625288,0.18121684
3411015721824,1.0139115,0,,-0.005184099,-0.002866494,0.0005427625,9.7171183,-0.34559,0.97212398,0.73938,-0.080372997,-0.66584498,-0.059209999,-0.37923094,-1.4625288,0.18121684
3411017788576,1.0159782,0,,0.00094219857,0.0020298528,0.0013080021,9.7450399,-0.39776501,0.97331101,0.73937899,-0.080374002,-0.66584599,-0.059216,-0.37917482,-1.4625328,0.18114967
3411019831744,1.0180214,0,,0.00094219857,0.0020298528,0.0013080021,9.7450399,-0.39776501,0.97331101,0.73937899,-0.080374002,-0.66584599,-0.059216,-0.37917482,-1.4625328,0.18114967
3411021782304,1.0199719,0,,0.0050283457,0.0037299431,0.0020528214,9.7612495,-0.37861601,0.97761798,0.73938602,-0.080370001,-0.66583902,-0.059211001,-0.37914402,-1.4625123,0.18113221
3411023764064,1.0219537,0,,0.0050283457,0.0037299431,0.0020528214,9.7612495,-0.37861601,0.97761798,0.73938602,-0.080370001,-0.66583902,-0.059211001,-0.37914402,-1.4625123,0.18113221
3411025765696,1.0239553,0,,0.0050283457,0.0037299431,0.0020528214,9.7612495,-0.37861601,0.97761798,0.73938602,-0.080370001,-0.66583902,-0.059211001,-0.37914402,-1.4625123,0.18113221
3411027783776,1.0259734,0,,0.0066770187,0.00012842133,0.0034981809,9.7596502,-0.38507199,0.968252,0.73939097,-0.080363996,-0.66583502,-0.059198,-0.37916989,-1.4624985,0.18118544
3411029816672,1.0280063,0,,0.0066770187,0.00012842133,0.0034981809,9.7596502,-0.38507199,0.968252,0.73939097,-0.080363996,-0.66583502,-0.059198,-0.37916989,-1.4624985,0.18118544
3411031777120,1.0299668,0,,0.0066770187,0.00012842133,0.0034981809,9.7596502,-0.38507199,0.968252,0.73939097,-0.080363996,-0.66583502,-0.059198,-0.37916989,-1.4624985,0.18118544
3411033781632,1.0319713,0,,0.0069660976,-0.0012533209,-0.00082150899,9.7837753,-0.39899999,0.97274798,0.73939401,-0.080351003,-0.66583502,-0.059183002,-0.37916843,-1.4624958,0.18122345
3411035782432,1.0339721,0,,0.0069660976,-0.0012533209,-0.00082150899,9.7837753,-0.39899999,0.97274798,0.73939401,-0.080351003,-0.66583502,-0.059183002,-0.37916843,-1.4624958,0.18122345
3411037824768,1.0360144,0,,0.0020796296,0.0025012138,-0.0024545612,9.815259,-0.40481299,0.97275597,0.73939502,-0.080339998,-0.66583502,-0.059183002,-0.37903111,-1.462497,0.18110138
3411039817632,1.0380073,0,,0.0020796296,0.0025012138,-0.0024545612,9.815259,-0.40481299,0.97275597,0.73939502,-0.080339998,-0.66583502,-0.059183002,-0.37903111,-1.462497,0.18110138
3411041773728,1.0399634,0,,0.0020796296,0.0025012138,-0.0024545612,9.815259,-0.40481299,0.97275597,0.73939502,-0.080339998,-0.66583502,-0.059183002,-0.37903111,-1.462497,0.18110138
3411043772128,1.0419618,0,,-0.0034911647,-0.0021421822,-0.00083494808,9.8132772,-0.374511,0.99690402,0.73939502,-0.080340996,-0.66583401,-0.059186,-0.37899645,-1.4624958,0.1810604
3411045761024,1.0439507,0,,-0.0034911647,-0.0021421822,-0.00083494808,9.8132772,-0.374511,0.99690402,0.73939502,-0.080340996,-0.66583401,-0.059186,-0.37899645,-1.4624958,0.1810604
3411047770144,1.0459598,0,,-0.00058763488,-0.0038989433,-0.0015556992,9.7856131,-0.371521,0.990224,0.73939002,-0.080343001,-0.66583902,-0.059193,-0.37897155,-1.462513,0.18102346
3411049776736,1.0479664,0,,-0.00058763488,-0.0038989433,-0.0015556992,9.7856131,-0.371521,0.990224,0.73939002,-0.080343001,-0.66583902,-0.059193,-0.37897155,-1.462513,0.18102346
3411051760800,1.0499504,0,,-0.00058763488,-0.0038989433,-0.0015556992,9.7856131,-0.371521,0.990224,0.73939002,-0.080343001,-0.66583902,-0.059193,-0.37897155,-1.462513,0.18102346
3411053820000,1.0520096,0,,-0.0033078703,-2.2828906e-05,-0.001005013,9.7911434,-0.39675701,0.97830397,0.73938698,-0.080343001,-0.665842,-0.059199002,-0.37892122,-1.4625218,0.18096596
3411055772608,1.0539622,0,,-0.0033078703,-2.2828906e-05,-0.001005013,9.7911434,-0.39675701,0.97830397,0.73938698,-0.080343001,-0.665842,-0.059199002,-0.37892122,-1.4625218,0.18096596
3411057785120,1.0559748,0,,8.5067345e-05,-0.00090727448,0.0013457361,9.7832355,-0.37758201,1.005971,0.73938602,-0.080347002,-0.665842,-0.059204001,-0.37892345,-1.4625235,0.18095354
3411059816960,1.0580066,0,,8.5067345e-05,-0.00090727448,0.0013457361,9.7832355,-0.37758201,1.005971,0.73938602,-0.080347002,-0.665842,-0.059204001,-0.37892345,-1.4625235,0.18095354
3411061862048,1.0600517,0,,-0.0029357486,-0.0046445831,-0.00037948693,9.7384081,-0.405734,1.004669,0.739384,-0.080349997,-0.66584402,-0.059207998,-0.37894099,-1.462531,0.18096191
3411063824192,1.0620138,0,,-0.0029357486,-0.0046445831,-0.00037948693,9.7384081,-0.405734,1.004669,0.739384,-0.080349997,-0.66584402,-0.059207998,-0.37894099,-1.462531,0.18096191
3411065776672,1.0639663,0,,-0.0029357486,-0.0046445831,-0.00037948693,9.7384081,-0.405734,1.004669,0.739384,-0.080349997,-0.66584402,-0.059207998,-0.37894099,-1.462531,0.18096191
3411067798368,1.065988,0,,-0.0029424679,-0.0013603619,0.0008127824,9.7018728,-0.433081,0.98216701,0.73937899,-0.080360003,-0.66584802,-0.059211999,-0.37904342,-1.4625384,0.18104487
3411069783136,1.0679728,0,,-0.0029424679,-0.0013603619,0.0008127824,9.7018728,-0.433081,0.98216701,0.73937899,-0.080360003,-0.66584802,-0.059211999,-0.37904342,-1.4625384,0.18104487
3411071724448,1.0699141,0,,-0.0029424679,-0.0013603619,0.0008127824,9.7018728,-0.433081,0.98216701,0.73937899,-0.080360003,-0.66584802,-0.059211999,-0.37904342,-1.4625384,0.18104487
3411073788096,1.0719777,0,,0.0010682811,-0.00085777694,0.0018670835,9.7155685,-0.40647799,0.98910099,0.73937899,-0.080366999,-0.665847,-0.059211999,-0.37913334,-1.462535,0.18112347
3411075814144,1.0740038,0,,0.0010682811,-0.00085777694,0.0018670835,9.7155685,-0.40647799,0.98910099,0.73937899,-0.080366999,-0.665847,-0.059211999,-0.37913334,-1.462535,0.18112347
3411077796640,1.0759863,0,,0.00023729497,0.001301876,-0.00069050462,9.7358551,-0.39868501,0.99019998,0.73938102,-0.080369003,-0.66584402,-0.059211999,-0.37914203,-1.462528,0.18113017
3411079832032,1.0780217,0,,0.00023729497,0.001301876,-0.00069050462,9.7358551,-0.39868501,0.99019998,0.73938102,-0.080369003,-0.66584402,-0.059211999,-0.37914203,-1.462528,0.18113017
3411081784256,1.0799739,0,,0.00023729497,0.001301876,-0.00069050462,9.7358551,-0.39868501,0.99019998,0.73938102,-0.080369003,-0.66584402,-0.059211999,-0.37914203,-1.462528,0.18113017
3411083774016,1.0819636,0,,0.0028714156,0.00085280276,0.0035931791,9.7761908,-0.40598699,1.006547,0.73938501,-0.080366999,-0.66584098,-0.059209999,-0.37910494,-1.4625183,0.18109903
3411085792672,1.0839823,0,,0.0028714156,0.00085280276,0.0035931791,9.7761908,-0.40598699,1.006547,0.73938501,-0.080366999,-0.66584098,-0.059209999,-0.37910494,-1.4625183,0.18109903
3411087772448,1.0859621,0,,0.0048224318,0.00064353779,0.00083168427,9.7915573,-0.385185,0.98393703,0.73939002,-0.080365002,-0.66583598,-0.0592,-0.37917245,-1.4625025,0.18118264
3411089776896,1.0879665,0,,0.0048224318,0.00064353779,0.00083168427,9.7915573,-0.385185,0.98393703,0.73939002,-0.080365002,-0.66583598,-0.0592,-0.37917245,-1.4625025,0.18118264
3411091772512,1.0899621,0,,0.0048224318,0.00064353779,0.00083168427,9.7915573,-0.385185,0.98393703,0.73939002,-0.080365002,-0.66583598,-0.0592,-0.37917245,-1.4625025,0.18118264
3411093805472,1.0919951,0,,0.0031786809,-0.0013968743,0.00098351046,9.8328199,-0.40181801,0.99363202,0.73939002,-0.080357999,-0.665838,-0.059193999,-0.37915251,-1.4625041,0.18118134
3411095880384,1.09407,0,,0.0031786809,-0.0013968743,0.00098351046,9.8328199,-0.40181801,0.99363202,0.73939002,-0.080357999,-0.665838,-0.059193999,-0.37915251,-1.4625041,0.18118134
3411097843936,1.0960336,0,,0.0044264166,0.0013194515,0.0012532685,9.8325663,-0.40833199,0.98889703,0.73939097,-0.080355003,-0.665838,-0.059190001,-0.37916793,-1.4625041,0.18120734
3411099876384,1.098066,0,,0.0044264166,0.0013194515,0.0012532685,9.8325663,-0.40833199,0.98889703,0.73939097,-0.080355003,-0.665838,-0.059190001,-0.37916793,-1.4625041,0.18120734
3411101744960,1.0999346,0,,0.0044264166,0.0013194515,0.0012532685,9.8325663,-0.40833199,0.98889703,0.73939097,-0.080355003,-0.665838,-0.059190001,-0.37916793,-1.4625041,0.18120734
3411103730624,1.1019203,0,,0.0061479225,0.0061605933,-0.002176635,9.8292284,-0.42981499,0.98667502,0.73940098,-0.080343001,-0.665829,-0.059181001,-0.37904522,-1.4624794,0.18111401
3411105743072,1.1039327,0,,0.0061479225,0.0061605933,-0.002176635,9.8292284,-0.42981499,0.98667502,0.73940098,-0.080343001,-0.665829,-0.059181001,-0.37904522,-1.4624794,0.18111401
3411107727104,1.1059167,0,,0.0016935628,-0.00066332984,-0.0022125365,9.7836685,-0.38329899,0.98363,0.73940599,-0.080335997,-0.66582298,-0.059183002,-0.3788851,-1.4624665,0.18096185
3411109793440,1.1079831,0,,0.0016935628,-0.00066332984,-0.0022125365,9.7836685,-0.38329899,0.98363,0.73940599,-0.080335997,-0.66582298,-0.059183002,-0.3788851,-1.4624665,0.18096185
3411111774816,1.1099644,0,,0.0016935628,-0.00066332984,-0.0022125365,9.7836685,-0.38329899,0.98363,0.73940599,-0.080335997,-0.66582298,-0.059183002,-0.3788851,-1.4624665,0.18096185
3411113736128,1.1119258,0,,0.00097764618,-0.00011239921,-0.00038657298,9.7289152,-0.35604301,0.98178101,0.739407,-0.080329001,-0.665824,-0.059181999,-0.37880524,-1.4624699,0.18089169
3411115734880,1.1139245,0,,0.00097764618,-0.00011239921,-0.00038657298,9.7289152,-0.35604301,0.98178101,0.739407,-0.080329001,-0.665824,-0.059181999,-0.37880524,-1.4624699,0.18089169
3411117760416,1.11595,0,,-0.00054860936,0.00097333518,-0.0027558924,9.6878347,-0.38818499,0.96363199,0.73940897,-0.080325998,-0.66582197,-0.059184998,-0.37871426,-1.4624665,0.18080129
3411119808288,1.1179979,0,,-0.00054860936,0.00097333518,-0.0027558924,9.6878347,-0.38818499,0.96363199,0.73940897,-0.080325998,-0.66582197,-0.059184998,-0.37871426,-1.4624665,0.18080129
3411121750080,1.1199397,0,,0.0020126788,-0.0045098261,0.00059241713,9.6812057,-0.325643,0.97983199,0.73940599,-0.080324002,-0.665824,-0.059190001,-0.37864894,-1.462476,0.18073155
3411123722944,1.1219126,0,,0.0020126788,-0.0045098261,0.00059241713,9.6812057,-0.325643,0.97983199,0.73940599,-0.080324002,-0.665824,-0.059190001,-0.37864894,-1.462476,0.18073155
3411125724800,1.1239144,0,,0.0020126788,-0.0045098261,0.00059241713,9.6812057,-0.325643,0.97983199,0.73940599,-0.080324002,-0.665824,-0.059190001,-0.37864894,-1.462476,0.18073155
3411127720416,1.12591,0,,0.0050762727,-0.0063942753,0.0013828069,9.7024431,-0.34201199,0.96654397,0.73939902,-0.080315001,-0.66583401,-0.059184,-0.37866805,-1.4625002,0.18077319
3411129802208,1.1279918,0,,0.0050762727,-0.0063942753,0.0013828069,9.7024431,-0.34201199,0.96654397,0.73939902,-0.080315001,-0.66583401,-0.059184,-0.37866805,-1.4625002,0.18077319
3411131784352,1.129974,0,,0.0050762727,-0.0063942753,0.0013828069,9.7024431,-0.34201199,0.96654397,0.73939902,-0.080315001,-0.66583401,-0.059184,-0.37866805,-1.4625002,0.18077319
3411133753952,1.1319436,0,,-0.00098712328,-0.0062910393,0.0020705189,9.7516403,-0.38507,0.96149397,0.73938799,-0.080312997,-0.665847,-0.059177998,-0.37878709,-1.4625306,0.18090352
3411135738624,1.1339283,0,,-0.00098712328,-0.0062910393,0.0020705189,9.7516403,-0.38507,0.96149397,0.73938799,-0.080312997,-0.665847,-0.059177998,-0.37878709,-1.4625306,0.18090352
3411137749760,1.1359394,0,,-0.0065675342,-0.0047882934,0.0003181037,9.7905064,-0.39143899,0.98459202,0.73937798,-0.080323003,-0.665856,-0.059184,-0.37892102,-1.4625543,0.18101553
3411139886560,1.1380762,0,,-0.0065675342,-0.0047882934,0.0003181037,9.7905064,-0.39143899,0.98459202,0.73937798,-0.080323003,-0.665856,-0.059184,-0.37892102,-1.4625543,0.18101553
3411141746816,1.1399364,0,,-0.00072357859,-0.00060421553,0.003070994,9.8091211,-0.38078901,0.98887002,0.73937297,-0.080335997,-0.66586,-0.059188999,-0.37906203,-1.4625636,0.18113122
3411143736608,1.1419262,0,,-0.00072357859,-0.00060421553,0.003070994,9.8091211,-0.38078901,0.98887002,0.73937297,-0.080335997,-0.66586,-0.059188999,-0.37906203,-1.4625636,0.18113122
3411145739360,1.143929,0,,-0.00072357859,-0.00060421553,0.003070994,9.8091211,-0.38078901,0.98887002,0.73937297,-0.080335997,-0.66586,-0.059188999,-0.37906203,-1.4625636,0.18113122
3411147728448,1.1459181,0,,0.0016748354,-0.00067949157,0.0025778687,9.86057,-0.44035,0.97804803,0.73937398,-0.080339,-0.66585898,-0.059186,-0.37912641,-1.4625608,0.18119429
3411149751488,1.1479411,0,,0.0016748354,-0.00067949157,0.0025778687,9.86057,-0.44035,0.97804803,0.73937398,-0.080339,-0.66585898,-0.059186,-0.37912641,-1.4625608,0.18119429
3411151725760,1.1499154,0,,0.0016748354,-0.00067949157,0.0025778687,9.86057,-0.44035,0.97804803,0.73937398,-0.080339,-0.66585898,-0.059186,-0.37912641,-1.4625608,0.18119429
3411153750656,1.1519403,0,,0.0016748354,-0.00067949157,0.0025778687,9.86057,-0.44035,0.97804803,0.73937398,-0.080339,-0.66585898,-0.059186,-0.37912641,-1.4625608,0.18119429
3411155721696,1.1539113,0,,0.0016748354,-0.00067949157,0.0025778687,9.86057,-0.44035,0.97804803,0.73937398,-0.080339,-0.66585898,-0.059186,-0.37912641,-1.4625608,0.18119429
3411157727200,1.1559168,0,,0.0043703566,-0.00081601122,-0.0018523529,9.8028755,-0.42553899,0.99397302,0.73937297,-0.080342002,-0.66585898,-0.059188001,-0.37915248,-1.462562,0.1812139
3411159906976,1.1580966,0,,0.0043703566,-0.00081601122,-0.0018523529,9.8028755,-0.42553899,0.99397302,0.73937297,-0.080342002,-0.66585898,-0.059188001,-0.37915248,-1.462562,0.1812139
3411161798176,1.1599878,0,,0.0043703566,-0.00081601122,-0.0018523529,9.8028755,-0.42553899,0.99397302,0.73937297,-0.080342002,-0.66585898,-0.059188001,-0.37915248,-1.462562,0.1812139
3411163761600,1.1619512,0,,0.0055492917,-0.00047088983,-0.0015022398,9.7640085,-0.40614799,0.98501897,0.73937297,-0.080330998,-0.66586101,-0.059181001,-0.37909615,-1.4625665,0.1811835
3411165815648,1.1640053,0,,0.0055492917,-0.00047088983,-0.0015022398,9.7640085,-0.40614799,0.98501897,0.73937297,-0.080330998,-0.66586101,-0.059181001,-0.37909615,-1.4625665,0.1811835
3411167751136,1.1659408,0,,0.0024533745,0.0030965458,-0.0012887511,9.7397575,-0.40956801,0.992136,0.73937702,-0.080323003,-0.66585702,-0.059177998,-0.37900388,-1.4625553,0.18110616
3411169733728,1.1679234,0,,0.0024533745,0.0030965458,-0.0012887511,9.7397575,-0.40956801,0.992136,0.73937702,-0.080323003,-0.66585702,-0.059177998,-0.37900388,-1.4625553,0.18110616
3411171731584,1.1699212,0,,0.0024533745,0.0030965458,-0.0012887511,9.7397575,-0.40956801,0.992136,0.73937702,-0.080323003,-0.66585702,-0.059177998,-0.37900388,-1.4625553,0.18110616
3411173788448,1.1719781,0,,0.0090584335,0.0062242454,-0.00072520178,9.7086754,-0.38686201,0.99424303,0.73938698,-0.080311999,-0.66584802,-0.059174001,-0.37883526,-1.4625328,0.18095897
3411175731712,1.1739213,0,,0.0090584335,0.0062242454,-0.00072520178,9.7086754,-0.38686201,0.99424303,0.73938698,-0.080311999,-0.66584802,-0.059174001,-0.37883526,-1.4625328,0.18095897
3411177761408,1.175951,0,,0.0055084684,0.0037629995,0.00055199527,9.7159662,-0.40311,0.99913001,0.73939997,-0.080297001,-0.66583699,-0.059165001,-0.37865563,-1.4625025,0.18081367
3411179803360,1.177993,0,,0.0055084684,0.0037629995,0.00055199527,9.7159662,-0.40311,0.99913001,0.73939997,-0.080297001,-0.66583699,-0.059165001,-0.37865563,-1.4625025,0.18081367
3411181805504,1.1799951,0,,0.0041499566,8.9500483e-05,-0.0002043606,9.705595,-0.38616499,0.98078299,0.73940498,-0.080292001,-0.665833,-0.059158999,-0.37861825,-1.4624908,0.18079159
3411183754560,1.1819442,0,,0.0041499566,8.9500483e-05,-0.0002043606,9.705595,-0.38616499,0.98078299,0.73940498,-0.080292001,-0.665833,-0.059158999,-0.37861825,-1.4624908,0.18079159
3411185823392,1.184013,0,,0.0041499566,8.9500483e-05,-0.0002043606,9.705595,-0.38616499,0.98078299,0.73940498,-0.080292001,-0.665833,-0.059158999,-0.37861825,-1.4624908,0.18079159
3411187762656,1.1859523,0,,0.0029044547,-0.0017776702,-0.00038247145,9.7445669,-0.391314,0.98617101,0.73940498,-0.080284998,-0.665833,-0.059152998,-0.3786068,-1.4624914,0.18079834
3411189774688,1.1879643,0,,0.0029044547,-0.0017776702,-0.00038247145,9.7445669,-0.391314,0.98617101,0.73940498,-0.080284998,-0.665833,-0.059152998,-0.3786068,-1.4624914,0.18079834
3411191741472,1.1899311,0,,0.0029044547,-0.0017776702,-0.00038247145,9.7445669,-0.391314,0.98617101,0.73940498,-0.080284998,-0.665833,-0.059152998,-0.3786068,-1.4624914,0.18079834
3411193747968,1.1919376,0,,-0.00012041027,0.0027062726,0.00045101052,9.7955647,-0.39750099,1.0029939,0.73940599,-0.080284998,-0.66583198,-0.059154,-0.37858962,-1.4624892,0.18078043
3411195752704,1.1939423,0,,-0.00012041027,0.0027062726,0.00045101052,9.7955647,-0.39750099,1.0029939,0.73940599,-0.080284998,-0.66583198,-0.059154,-0.37858962,-1.4624892,0.18078043
3411197759392,1.195949,0,,0.00021439625,-0.00032014574,0.0019986812,9.8024349,-0.39561099,0.98054898,0.73940998,-0.080285996,-0.66582799,-0.059149999,-0.37861732,-1.462476,0.18081118
3411199936640,1.1981263,0,,0.00021439625,-0.00032014574,0.0019986812,9.8024349,-0.39561099,0.98054898,0.73940998,-0.080285996,-0.66582799,-0.059149999,-0.37861732,-1.462476,0.18081118
3411201750816,1.1999404,0,,0.00021439625,-0.00032014574,0.0019986812,9.8024349,-0.39561099,0.98054898,0.73940998,-0.080285996,-0.66582799,-0.059149999,-0.37861732,-1.462476,0.18081118
3411203737120,1.2019268,0,,-0.0037834549,-0.0026188143,0.00017617354,9.8016653,-0.398763,0.97380197,0.73940897,-0.080291003,-0.66582799,-0.059152,-0.37865933,-1.4624764,0.18084354
3411205757440,1.2039471,0,,-0.0037834549,-0.0026188143,0.00017617354,9.8016653,-0.398763,0.97380197,0.73940897,-0.080291003,-0.66582799,-0.059152,-0.37865933,-1.4624764,0.18084354
3411207730816,1.2059204,0,,0.0032529795,-0.0043458001,4.4854963e-06,9.8130693,-0.37355599,0.97257102,0.739402,-0.080293998,-0.66583598,-0.059154,-0.37873227,-1.4624946,0.18091095
3411209778720,1.2079684,0,,0.0032529795,-0.0043458001,4.4854963e-06,9.8130693,-0.37355599,0.97257102,0.739402,-0.080293998,-0.66583598,-0.059154,-0.37873227,-1.4624946,0.18091095
3411211725536,1.2099152,0,,0.0032529795,-0.0043458001,4.4854963e-06,9.8130693,-0.37355599,0.97257102,0.739402,-0.080293998,-0.66583598,-0.059154,-0.37873227,-1.4624946,0.18091095
3411213739936,1.2119296,0,,0.0066028772,0.00054653241,0.00071980869,9.8134718,-0.393859,0.97612697,0.73940098,-0.080285996,-0.66583902,-0.059145998,-0.37874152,-1.4625034,0.18094282
3411215737504,1.2139271,0,,0.0066028772,0.00054653241,0.00071980869,9.8134718,-0.393859,0.97612697,0.73940098,-0.080285996,-0.66583902,-0.059145998,-0.37874152,-1.4625034,0.18094282
3411217736800,1.2159264,0,,0.0095995722,0.002353629,-0.0014255151,9.781992,-0.395028,0.98499799,0.73940498,-0.080269001,-0.66583699,-0.059133999,-0.37862757,-1.4624941,0.1808695
3411219806528,1.2179962,0,,0.0095995722,0.002353629,-0.0014255151,9.781992,-0.395028,0.98499799,0.73940498,-0.080269001,-0.66583699,-0.059133999,-0.37862757,-1.4624941,0.1808695
3411221731488,1.2199211,0,,0.0095995722,0.002353629,-0.0014255151,9.781992,-0.395028,0.98499799,0.73940498,-0.080269001,-0.66583699,-0.059133999,-0.37862757,-1.4624941,0.1808695
3411223715744,1.2219054,0,,0.0064672651,0.0026188491,-0.00022910937,9.7304411,-0.34581399,0.96313697,0.739411,-0.080252998,-0.665833,-0.059122998,-0.37851615,-1.4624814,0.18079625
3411225722304,1.2239119,0,,0.0064672651,0.0026188491,-0.00022910937,9.7304411,-0.34581399,0.96313697,0.739411,-0.080252998,-0.665833,-0.059122998,-0.37851615,-1.4624814,0.18079625
3411227713440,1.2259031,0,,-0.004522654,-0.0017034413,0.0028271367,9.7213669,-0.372152,0.97251898,0.73941201,-0.080251001,-0.66583198,-0.059122,-0.37848309,-1.4624797,0.18076679
3411229742752,1.2279324,0,,-0.004522654,-0.0017034413,0.0028271367,9.7213669,-0.372152,0.97251898,0.73941201,-0.080251001,-0.66583198,-0.059122,-0.37848309,-1.4624797,0.18076679
3411231714496,1.2299041,0,,-0.004522654,-0.0017034413,0.0028271367,9.7213669,-0.372152,0.97251898,0.73941201,-0.080251001,-0.66583198,-0.059122,-0.37848309,-1.4624797,0.18076679
3411233718048,1.2319077,0,,-0.0061563348,0.0010944262,0.0022699753,9.7483177,-0.368835,0.98089099,0.73941302,-0.080262996,-0.665829,-0.059129998,-0.37854205,-1.4624734,0.18079711
3411235708864,1.2338985,0,,-0.0061563348,0.0010944262,0.0022699753,9.7483177,-0.368835,0.98089099,0.73941302,-0.080262996,-0.665829,-0.059129998,-0.37854205,-1.4624734,0.18079711
3411237717504,1.2359071,0,,-0.0037877136,-0.00025607471,0.0021271025,9.7343111,-0.37759501,0.96620899,0.73941302,-0.080275998,-0.66582698,-0.059138,-0.37860896,-1.4624692,0.1808347
3411239800416,1.23799,0,,-0.0037877136,-0.00025607471,0.0021271025,9.7343111,-0.37759501,0.96620899,0.73941302,-0.080275998,-0.66582698,-0.059138,-0.37860896,-1.4624692,0.1808347
3411241713440,1.2399031,0,,-0.0037877136,-0.00025607471,0.0021271025,9.7343111,-0.37759501,0.96620899,0.73941302,-0.080275998,-0.66582698,-0.059138,-0.37860896,-1.4624692,0.1808347
3411243709920,1.2418996,0,,-0.0011820243,-0.0016585514,0.00079801687,9.7565641,-0.41286299,0.981399,0.73941201,-0.080283999,-0.66582698,-0.059138998,-0.37870813,-1.4624683,0.18092038
3411245716832,1.2439065,0,,-0.0011820243,-0.0016585514,0.00079801687,9.7565641,-0.41286299,0.981399,0.73941201,-0.080283999,-0.66582698,-0.059138998,-0.37870813,-1.4624683,0.18092038
3411247733440,1.2459231,0,,-0.0034632046,-0.0029365863,0.001225832,9.7959814,-0.39055601,0.986283,0.73940897,-0.080293998,-0.665829,-0.059140999,-0.37883397,-1.4624734,0.18103014
3411249741408,1.247931,0,,-0.0034632046,-0.0029365863,0.001225832,9.7959814,-0.39055601,0.986283,0.73940897,-0.080293998,-0.665829,-0.059140999,-0.37883397,-1.4624734,0.18103014
3411251738336,1.249928,0,,-0.0034632046,-0.0029365863,0.001225832,9.7959814,-0.39055601,0.986283,0.73940897,-0.080293998,-0.665829,-0.059140999,-0.37883397,-1.4624734,0.18103014
3411253736896,1.2519265,0,,-0.0013283526,0.00045656067,-0.0020630664,9.8117008,-0.41624001,0.99915898,0.739407,-0.080297999,-0.66583002,-0.059149001,-0.37880923,-1.462478,0.18098914
3411255748320,1.253938,0,,-0.0013283526,0.00045656067,-0.0020630664,9.8117008,-0.41624001,0.99915898,0.739407,-0.080297999,-0.66583002,-0.059149001,-0.37880923,-1.462478,0.18098914
3411257848288,1.2560379,0,,-0.0029221699,-0.0033440159,0.00084542003,9.7861319,-0.42631,0.99441803,0.73940599,-0.080300003,-0.66583097,-0.059152,-0.37880797,-1.4624821,0.18097902
3411259799104,1.2579887,0,,-0.0029221699,-0.0033440159,0.00084542003,9.7861319,-0.42631,0.99441803,0.73940599,-0.080300003,-0.66583097,-0.059152,-0.37880797,-1.4624821,0.18097902
3411261846336,1.260036,0,,-0.00021465805,-0.0022967312,-0.0006680946,9.7686796,-0.383486,0.98943299,0.739402,-0.080306999,-0.66583401,-0.059154999,-0.37888986,-1.4624882,0.18104732
3411263736224,1.2619259,0,,-0.00021465805,-0.0022967312,-0.0006680946,9.7686796,-0.383486,0.98943299,0.739402,-0.080306999,-0.66583401,-0.059154999,-0.37888986,-1.4624882,0.18104732
3411265755296,1.2639449,0,,-0.00021465805,-0.0022967312,-0.0006680946,9.7686796,-0.383486,0.98943299,0.739402,-0.080306999,-0.66583401,-0.059154999,-0.37888986,-1.4624882,0.18104732
3411267731744,1.2659214,0,,-0.00041659265,0.0020759819,-0.001235571,9.7645025,-0.41279599,0.97686899,0.739402,-0.080307998,-0.665833,-0.059161,-0.37882727,-1.4624885,0.18097589
3411269774784,1.2679644,0,,-0.00041659265,0.0020759819,-0.001235571,9.7645025,-0.41279599,0.97686899,0.739402,-0.080307998,-0.665833,-0.059161,-0.37882727,-1.4624885,0.18097589
3411271737600,1.2699272,0,,-0.00041659265,0.0020759819,-0.001235571,9.7645025,-0.41279599,0.97686899,0.739402,-0.080307998,-0.665833,-0.059161,-0.37882727,-1.4624885,0.18097589
3411273738336,1.271928,0,,0.0035638227,0.00055801664,0.00012344714,9.7682695,-0.41799101,1.0028811,0.73940599,-0.080306001,-0.665829,-0.059158999,-0.3787836,-1.462478,0.18093701
3411275726048,1.2739157,0,,0.0035638227,0.00055801664,0.00012344714,9.7682695,-0.41799101,1.0028811,0.73940599,-0.080306001,-0.665829,-0.059158999,-0.3787836,-1.462478,0.18093701
3411277739072,1.2759287,0,,-0.00035220744,-0.0034970465,0.0038085003,9.7446918,-0.38858399,1.004719,0.73940802,-0.080307998,-0.66582799,-0.059154,-0.37886969,-1.4624704,0.18102689
3411279769152,1.2779588,0,,-0.00035220744,-0.0034970465,0.0038085003,9.7446918,-0.38858399,1.004719,0.73940802,-0.080307998,-0.66582799,-0.059154,-0.37886969,-1.4624704,0.18102689
3411281722464,1.2799121,0,,-0.00035220744,-0.0034970465,0.0038085003,9.7446918,-0.38858399,1.004719,0.73940802,-0.080307998,-0.66582799,-0.059154,-0.37886969,-1.4624704,0.18102689
3411283709792,1.2818994,0,,-0.0033216932,-0.0060855618,0.0022014012,9.7493696,-0.412002,0.97808999,0.73940098,-0.080320001,-0.665833,-0.059151001,-0.37910271,-1.4624821,0.18124694
3411285716864,1.2839065,0,,-0.0033216932,-0.0060855618,0.0022014012,9.7493696,-0.412002,0.97808999,0.73940098,-0.080320001,-0.665833,-0.059151001,-0.37910271,-1.4624821,0.18124694
3411287713856,1.2859035,0,,-0.0020864015,-0.0035663709,-0.00015954055,9.792181,-0.394465,0.97681302,0.73939401,-0.080325998,-0.66584098,-0.059154999,-0.37919492,-1.4625002,0.1813252
3411289719712,1.2879093,0,,-0.0020864015,-0.0035663709,-0.00015954055,9.792181,-0.394465,0.97681302,0.73939401,-0.080325998,-0.66584098,-0.059154999,-0.37919492,-1.4625002,0.1813252
3411291708576,1.2898982,0,,-0.0020864015,-0.0035663709,-0.00015954055,9.792181,-0.394465,0.97681302,0.73939401,-0.080325998,-0.66584098,-0.059154999,-0.37919492,-1.4625002,0.1813252
3411293719616,1.2919092,0,,0.00072659799,-0.00030393163,-0.00066491811,9.8036604,-0.39958,1.005726,0.73939097,-0.080328003,-0.66584402,-0.059158999,-0.37919636,-1.4625106,0.18131751
3411295885504,1.2940751,0,,0.00072659799,-0.00030393163,-0.00066491811,9.8036604,-0.39958,1.005726,0.73939097,-0.080328003,-0.66584402,-0.059158999,-0.37919636,-1.4625106,0.18131751
3411297730432,1.2959201,0,,-0.0020187526,-0.0021519037,-0.00057707567,9.777566,-0.37427399,0.98341,0.73939097,-0.080329999,-0.66584301,-0.059161998,-0.37917888,-1.4625074,0.18129436
3411299832736,1.2980224,0,,-0.0020187526,-0.0021519037,-0.00057707567,9.777566,-0.37427399,0.98341,0.73939097,-0.080329999,-0.66584301,-0.059161998,-0.37917888,-1.4625074,0.18129436
3411301718240,1.2999079,0,,-0.0020187526,-0.0021519037,-0.00057707567,9.777566,-0.37427399,0.98341,0.73939097,-0.080329999,-0.66584301,-0.059161998,-0.37917888,-1.4625074,0.18129436
3411303705792,1.3018954,0,,-0.005475866,-0.002075755,0.00023253021,9.7893095,-0.39237499,0.965276,0.73938698,-0.080337003,-0.66584599,-0.05917,-0.37920428,-1.4625211,0.1812986
3411305738048,1.3039277,0,,-0.005475866,-0.002075755,0.00023253021,9.7893095,-0.39237499,0.965276,0.73938698,-0.080337003,-0.66584599,-0.05917,-0.37920428,-1.4625211,0.1812986
3411307740832,1.3059305,0,,-0.0018244276,-0.00078415901,0.0011935609,9.7782116,-0.34882998,0.99455297,0.73938298,-0.080346003,-0.66584897,-0.059177,-0.37925931,-1.4625288,0.18132994
3411309774144,1.3079638,0,,-0.0018244276,-0.00078415901,0.0011935609,9.7782116,-0.34882998,0.99455297,0.73938298,-0.080346003,-0.66584897,-0.059177,-0.37925931,-1.4625288,0.18132994
3411311731904,1.3099215,0,,-0.0018244276,-0.00078415901,0.0011935609,9.7782116,-0.34882998,0.99455297,0.73938298,-0.080346003,-0.66584897,-0.059177,-0.37925931,-1.4625288,0.18132994
3411313735808,1.3119254,0,,0.001033392,-0.0024902533,0.0010903944,9.7636652,-0.36201999,0.98794001,0.73938298,-0.080344997,-0.66584897,-0.059177998,-0.37924476,-1.4625295,0.1813165
