t_recv_ns,t_s,t_stamp_ns,frame_id,angular_velocity.x,angular_velocity.y,angular_velocity.z,linear_acceleration.x,linear_acceleration.y,linear_acceleration.z,quaternion.w,quaternion.x,quaternion.y,quaternion.z,rpy.x,rpy.y,rpy.z
2535642570720,0,0,,-0.0037117394,-7.1994831e-05,-0.028160469,9.7822351,-0.563761,0.80527502,0.73539102,-0.026024001,-0.67714,0.0015069999,-0.45887907,-1.4796484,0.42416949
2535642629536,5.8816e-05,0,,-0.0037117394,-7.1994831e-05,-0.028160469,9.7822351,-0.563761,0.80527502,0.73539102,-0.026024001,-0.67714,0.0015069999,-0.45887907,-1.4796484,0.42416949
2535643982880,0.00141216,0,,-0.0083506672,-0.00021711895,-0.033831097,9.7429285,-0.334656,0.77850503,0.73539299,-0.025986999,-0.67714,0.001446,-0.45751133,-1.4797068,0.4227683
2535645955680,0.00338496,0,,-0.0076384859,-0.0062879673,-0.030925873,9.7773838,-0.279614,0.76498401,0.73538703,-0.025945,-0.67714798,0.0013689999,-0.45595165,-1.4797952,0.42115835
2535648169216,0.005598496,0,,-0.0076384859,-0.0062879673,-0.030925873,9.7773838,-0.279614,0.76498401,0.73538703,-0.025945,-0.67714798,0.0013689999,-0.45595165,-1.4797952,0.42115835
2535649941088,0.007370368,0,,-0.0076384859,-0.0062879673,-0.030925873,9.7773838,-0.279614,0.76498401,0.73538703,-0.025945,-0.67714798,0.0013689999,-0.45595165,-1.4797952,0.42115835
2535651937440,0.00936672,0,,-0.0069659233,-0.0058015269,-0.031155856,9.8049889,-0.55286902,0.800735,0.73537701,-0.025899,-0.67716098,0.001295,-0.45443725,-1.4798942,0.41960443
2535653933920,0.0113632,0,,-0.0069659233,-0.0058015269,-0.031155856,9.8049889,-0.55286902,0.800735,0.73537701,-0.025899,-0.67716098,0.001295,-0.45443725,-1.4798942,0.41960443
2535655938080,0.01336736,0,,-0.015394694,-0.0054051278,-0.033487301,9.771924,-0.66498899,0.80313998,0.735367,-0.025869999,-0.67717302,0.001225,-0.45321576,-1.4799829,0.41832448
2535658033856,0.015463136,0,,-0.015394694,-0.0054051278,-0.033487301,9.771924,-0.66498899,0.80313998,0.735367,-0.025869999,-0.67717302,0.001225,-0.45321576,-1.4799829,0.41832448
2535659948192,0.017377472,0,,-0.015394694,-0.0054051278,-0.033487301,9.771924,-0.66498899,0.80313998,0.735367,-0.025869999,-0.67717302,0.001225,-0.45321576,-1.4799829,0.41832448
2535661935264,0.019364544,0,,-0.017386062,-0.003767904,-0.034713516,9.7411823,-0.42541701,0.83761001,0.73535901,-0.025854999,-0.67718297,0.001144,-0.45201773,-1.4800638,0.41703295
2535663932704,0.021361984,0,,-0.017386062,-0.003767904,-0.034713516,9.7411823,-0.42541701,0.83761001,0.73535901,-0.025854999,-0.67718297,0.001144,-0.45201773,-1.4800638,0.41703295
2535665927680,0.02335696,0,,-0.014656018,-0.0047817484,-0.036095017,9.7166939,-0.38966098,0.77221197,0.73535299,-0.025829,-0.67719001,0.001051,-0.45046651,-1.4801535,0.41538805
2535668126176,0.025555456,0,,-0.014656018,-0.0047817484,-0.036095017,9.7166939,-0.38966098,0.77221197,0.73535299,-0.025829,-0.67719001,0.001051,-0.45046651,-1.4801535,0.41538805
2535669960096,0.027389376,0,,-0.014656018,-0.0047817484,-0.036095017,9.7166939,-0.38966098,0.77221197,0.73535299,-0.025829,-0.67719001,0.001051,-0.45046651,-1.4801535,0.41538805
2535672004640,0.02943392,0,,-0.0085095794,4.3598323e-05,-0.034485402,9.7646389,-0.26727501,0.85690498,0.73534799,-0.025789,-0.67719698,0.00096500001,-0.44878342,-1.4802423,0.41363905
2535673965696,0.031394976,0,,-0.0085095794,4.3598323e-05,-0.034485402,9.7646389,-0.26727501,0.85690498,0.73534799,-0.025789,-0.67719698,0.00096500001,-0.44878342,-1.4802423,0.41363905
2535675994112,0.033423392,0,,-0.0035722876,-0.0010814584,-0.033267913,9.7994699,-0.40367001,0.814861,0.73535001,-0.025738999,-0.67719698,0.00088599999,-0.44695207,-1.4803161,0.41176668
2535677966464,0.035395744,0,,-0.0035722876,-0.0010814584,-0.033267913,9.7994699,-0.40367001,0.814861,0.73535001,-0.025738999,-0.67719698,0.00088599999,-0.44695207,-1.4803161,0.41176668
2535679979360,0.03740864,0,,-0.0035722876,-0.0010814584,-0.033267913,9.7994699,-0.40367001,0.814861,0.73535001,-0.025738999,-0.67719698,0.00088599999,-0.44695207,-1.4803161,0.41176668
2536014018624,0.3714479,0,,-0.0045982618,0.00012929399,-0.027197291,9.7553844,-0.46946499,0.84338701,0.73535103,-0.025695,-0.67719799,0.00082199997,-0.44545091,-1.4803795,0.41023803
2536014133216,0.3715625,0,,-0.0045982618,0.00012929399,-0.027197291,9.7553844,-0.46946499,0.84338701,0.73535103,-0.025695,-0.67719799,0.00082199997,-0.44545091,-1.4803795,0.41023803
2536014221952,0.37165123,0,,-0.0045982618,0.00012929399,-0.027197291,9.7553844,-0.46946499,0.84338701,0.73535103,-0.025695,-0.67719799,0.00082199997,-0.44545091,-1.4803795,0.41023803
2536014271840,0.37170112,0,,-0.0045982618,0.00012929399,-0.027197291,9.7553844,-0.46946499,0.84338701,0.73535103,-0.025695,-0.67719799,0.00082199997,-0.44545091,-1.4803795,0.41023803
2536014372928,0.37180221,0,,-0.0044743957,0.0025972593,-0.032521296,9.7997036,-0.379623,0.78010398,0.73536003,-0.025625,-0.67719102,0.00069900003,-0.4426234,-1.4804719,0.40733432
2536014452544,0.37188182,0,,-0.0057405103,-0.0039584241,-0.026599464,9.7122126,-0.27577901,0.78448999,0.73536199,-0.025534,-0.67719197,0.00055400003,-0.43928806,-1.4806048,0.40392374
2536014520832,0.37195011,0,,-0.0022374772,-0.0014695497,-0.026139971,9.5897369,-0.88362002,0.75690901,0.73535699,-0.025495,-0.67719901,0.00049100001,-0.43791726,-1.4806823,0.40251959
2536014588416,0.3720177,0,,-0.027273895,0.018829518,-0.043253327,9.7550945,-0.371263,0.91743398,0.73539197,-0.0255,-0.67716098,0.00037299999,-0.43590724,-1.4806538,0.40033453
2536014644384,0.37207366,0,,-0.024867573,0.0042363504,-0.054188059,9.8276386,-0.166272,0.83265698,0.73541397,-0.025466999,-0.67713797,0.00023400001,-0.43323399,-1.4806935,0.39751022
2536014696384,0.37212566,0,,-0.018241064,0.0032903295,-0.056779294,9.8258171,-0.140067,0.84826601,0.73541999,-0.025407,-0.67713499,8.1999999e-05,-0.43019296,-1.4808031,0.39433999
2536014755712,0.37218499,0,,-0.019983008,-0.0025410424,-0.067441737,9.8886356,-0.55945301,0.64948899,0.73541898,-0.02524,-0.67714202,-0.000216,-0.42361698,-1.4810746,0.38757672
2536014805696,0.37223498,0,,-0.016158502,-0.0010707944,-0.064169736,9.9418268,-0.40155801,0.82567698,0.73540801,-0.02517,-0.67715597,-0.00036000001,-0.42071407,-1.4812258,0.38457038
2536014917344,0.37234662,0,,-0.016772404,0.0033727266,-0.06567044,9.9251366,-0.31476101,0.81882799,0.73540998,-0.025092,-0.67715597,-0.00050700002,-0.41747194,-1.4813491,0.38123084
2536014953344,0.37238262,0,,-0.016772404,0.0033727266,-0.06567044,9.9251366,-0.31476101,0.81882799,0.73540998,-0.025092,-0.67715597,-0.00050700002,-0.41747194,-1.4813491,0.38123084
2536015013312,0.37244259,0,,-0.021069318,0.0043798691,-0.063169174,9.9206438,-0.22726201,0.83902001,0.73541701,-0.025013,-0.67715102,-0.00066199998,-0.41404375,-1.4814621,0.37769477
2536015099296,0.37252858,0,,-0.021069318,0.0043798691,-0.063169174,9.9206438,-0.22726201,0.83902001,0.73541701,-0.025013,-0.67715102,-0.00066199998,-0.41404375,-1.4814621,0.37769477
2536015160384,0.37258966,0,,-0.010811913,0.0043863439,-0.050873959,9.8133125,-0.28211299,0.89056498,0.73542601,-0.024944,-0.677145,-0.00080400001,-0.41092176,-1.4815542,0.37446911
2536015206592,0.37263587,0,,-0.010811913,0.0043863439,-0.050873959,9.8133125,-0.28211299,0.89056498,0.73542601,-0.024944,-0.677145,-0.00080400001,-0.41092176,-1.4815542,0.37446911
2536015241056,0.37267034,0,,-0.010811913,0.0043863439,-0.050873959,9.8133125,-0.28211299,0.89056498,0.73542601,-0.024944,-0.677145,-0.00080400001,-0.41092176,-1.4815542,0.37446911
2536015277536,0.37270682,0,,-0.010010353,0.0052337711,-0.044851819,9.6416817,-0.36633599,0.85716897,0.73543799,-0.024878999,-0.67713398,-0.00091,-0.408286,-1.4816184,0.37177472
2536015312672,0.37274195,0,,-0.010010353,0.0052337711,-0.044851819,9.6416817,-0.36633599,0.85716897,0.73543799,-0.024878999,-0.67713398,-0.00091,-0.408286,-1.4816184,0.37177472
2536015352832,0.37278211,0,,-0.017005127,0.0051786535,-0.038135356,9.6075888,-0.29661399,0.89726198,0.73544997,-0.024835,-0.677122,-0.001014,-0.40602055,-1.481668,0.36942412
2536015955936,0.37338522,0,,0.0076803735,-0.00021512929,-0.0049209558,9.82265,-0.23640101,0.76663703,0.735686,-0.024451001,-0.67687899,-0.001177,-0.395012,-1.4813252,0.3587289
2536017931584,0.37536086,0,,0.0076803735,-0.00021512929,-0.0049209558,9.82265,-0.23640101,0.76663703,0.735686,-0.024451001,-0.67687899,-0.001177,-0.395012,-1.4813252,0.3587289
2536019932288,0.37736157,0,,0.0076803735,-0.00021512929,-0.0049209558,9.82265,-0.23640101,0.76663703,0.735686,-0.024451001,-0.67687899,-0.001177,-0.395012,-1.4813252,0.3587289
2536021959136,0.37938842,0,,0.0029797308,-0.0051141463,-0.0038986642,9.8018703,-0.220828,0.83355701,0.73567998,-0.024431,-0.67688602,-0.001183,-0.39467475,-1.4813563,0.35841245
2536024084640,0.38151392,0,,0.0029797308,-0.0051141463,-0.0038986642,9.8018703,-0.220828,0.83355701,0.73567998,-0.024431,-0.67688602,-0.001183,-0.39467475,-1.4813563,0.35841245
2536025978656,0.38340794,0,,0.00027431339,-0.0042076049,-0.0015128165,9.6873159,-0.34347501,0.715648,0.735672,-0.024419,-0.67689502,-0.001191,-0.39448167,-1.4813866,0.35822373
2536028147712,0.38557699,0,,0.00027431339,-0.0042076049,-0.0015128165,9.6873159,-0.34347501,0.715648,0.735672,-0.024419,-0.67689502,-0.001191,-0.39448167,-1.4813866,0.35822373
2536029978912,0.38740819,0,,0.00027431339,-0.0042076049,-0.0015128165,9.6873159,-0.34347501,0.715648,0.735672,-0.024419,-0.67689502,-0.001191,-0.39448167,-1.4813866,0.35822373
2536031961248,0.38939053,0,,-0.001223755,-0.0014284298,-0.0053373915,9.7532701,-0.353405,0.742567,0.73566699,-0.024413001,-0.67690098,-0.001197,-0.39436283,-1.4814091,0.35810585
2536033943936,0.39137322,0,,-0.001223755,-0.0014284298,-0.0053373915,9.7532701,-0.353405,0.742567,0.73566699,-0.024413001,-0.67690098,-0.001197,-0.39436283,-1.4814091,0.35810585
2536035947136,0.39337642,0,,-0.0051219303,-0.00043270204,-0.0065626297,9.7406502,-0.29900801,0.80296701,0.73566401,-0.024409,-0.67690498,-0.001212,-0.39413679,-1.4814292,0.35786304
2536037944640,0.39537392,0,,-0.0051219303,-0.00043270204,-0.0065626297,9.7406502,-0.29900801,0.80296701,0.73566401,-0.024409,-0.67690498,-0.001212,-0.39413679,-1.4814292,0.35786304
2536040076512,0.39750579,0,,-0.0051219303,-0.00043270204,-0.0065626297,9.7406502,-0.29900801,0.80296701,0.73566401,-0.024409,-0.67690498,-0.001212,-0.39413679,-1.4814292,0.35786304
2536041937504,0.39936678,0,,-0.0047880666,-0.0058760522,0.0010596767,9.7062979,-0.296128,0.75336599,0.73566002,-0.024412001,-0.67690897,-0.001229,-0.39398978,-1.4814453,0.35768747
2536043949312,0.40137859,0,,-0.0047880666,-0.0058760522,0.0010596767,9.7062979,-0.296128,0.75336599,0.73566002,-0.024412001,-0.67690897,-0.001229,-0.39398978,-1.4814453,0.35768747
2536045939232,0.40336851,0,,-0.0047551844,-0.0064384848,0.0026428823,9.7367887,-0.30908099,0.76565301,0.73564798,-0.024422999,-0.67692202,-0.001234,-0.39423979,-1.4814746,0.357915
2536048105056,0.40553434,0,,-0.0047551844,-0.0064384848,0.0026428823,9.7367887,-0.30908099,0.76565301,0.73564798,-0.024422999,-0.67692202,-0.001234,-0.39423979,-1.4814746,0.357915
2536049921280,0.40735056,0,,-0.0047551844,-0.0064384848,0.0026428823,9.7367887,-0.30908099,0.76565301,0.73564798,-0.024422999,-0.67692202,-0.001234,-0.39423979,-1.4814746,0.357915
2536051922080,0.40935136,0,,-0.00055180327,0.0021642781,-0.0031882452,9.815547,-0.3601,0.86328101,0.73564398,-0.024425,-0.676925,-0.001239,-0.39422973,-1.4814854,0.35789596
2536053937824,0.4113671,0,,-0.00055180327,0.0021642781,-0.0031882452,9.815547,-0.3601,0.86328101,0.73564398,-0.024425,-0.676925,-0.001239,-0.39422973,-1.4814854,0.35789596
2536055920576,0.41334986,0,,-0.00070895273,-0.0032579537,-0.0031592204,9.9102201,-0.429616,0.87265599,0.73564798,-0.024420001,-0.67692101,-0.00125,-0.39395533,-1.481484,0.35761327
2536057995136,0.41542442,0,,-0.00070895273,-0.0032579537,-0.0031592204,9.9102201,-0.429616,0.87265599,0.73564798,-0.024420001,-0.67692101,-0.00125,-0.39395533,-1.481484,0.35761327
2536059950912,0.41738019,0,,-0.00070895273,-0.0032579537,-0.0031592204,9.9102201,-0.429616,0.87265599,0.73564798,-0.024420001,-0.67692101,-0.00125,-0.39395533,-1.481484,0.35761327
2536061916384,0.41934566,0,,-0.0030550941,-0.0044989878,-0.0052448539,9.9602671,-0.51817799,0.81694102,0.73564398,-0.024422999,-0.67692602,-0.001257,-0.39394744,-1.4814987,0.35759129
2536063916960,0.42134624,0,,-0.0030550941,-0.0044989878,-0.0052448539,9.9602671,-0.51817799,0.81694102,0.73564398,-0.024422999,-0.67692602,-0.001257,-0.39394744,-1.4814987,0.35759129
2536065911584,0.42334086,0,,-0.0046881466,-0.0056517428,-0.0070699973,9.9790115,-0.43230799,0.8689,0.735636,-0.024426,-0.676934,-0.001269,-0.39393715,-1.4815254,0.35755957
2536068105120,0.4255344,0,,-0.0046881466,-0.0056517428,-0.0070699973,9.9790115,-0.43230799,0.8689,0.735636,-0.024426,-0.676934,-0.001269,-0.39393715,-1.4815254,0.35755957
2536069927008,0.42735629,0,,-0.0046881466,-0.0056517428,-0.0070699973,9.9790115,-0.43230799,0.8689,0.735636,-0.024426,-0.676934,-0.001269,-0.39393715,-1.4815254,0.35755957
2536071911168,0.42934045,0,,0.00066428977,-0.0069549799,-0.010733495,9.9874058,-0.335558,0.910312,0.73562801,-0.024419,-0.676943,-0.001288,-0.39365672,-1.4815609,0.35726073
2536073915680,0.43134496,0,,0.00066428977,-0.0069549799,-0.010733495,9.9874058,-0.335558,0.910312,0.73562801,-0.024419,-0.676943,-0.001288,-0.39365672,-1.4815609,0.35726073
2536075938240,0.43336752,0,,0.0025185101,-0.010987738,-0.0085465458,9.7903137,-0.47790501,0.804335,0.73561698,-0.024397999,-0.676956,-0.001305,-0.3932434,-1.4816111,0.35685493
2536077909408,0.43533869,0,,0.0025185101,-0.010987738,-0.0085465458,9.7903137,-0.47790501,0.804335,0.73561698,-0.024397999,-0.676956,-0.001305,-0.3932434,-1.4816111,0.35685493
2536079939744,0.43736902,0,,0.0025185101,-0.010987738,-0.0085465458,9.7903137,-0.47790501,0.804335,0.73561698,-0.024397999,-0.676956,-0.001305,-0.3932434,-1.4816111,0.35685493
2536081937056,0.43936634,0,,0.0020214055,-0.0061648871,-0.0090220782,9.6370001,-0.430298,0.79523402,0.73560399,-0.024387,-0.67697102,-0.001312,-0.39313101,-1.4816566,0.35674681
2536083936416,0.4413657,0,,0.0020214055,-0.0061648871,-0.0090220782,9.6370001,-0.430298,0.79523402,0.73560399,-0.024387,-0.67697102,-0.001312,-0.39313101,-1.4816566,0.35674681
2536085934528,0.44336381,0,,0.0044823722,-0.0063147581,-0.0079030601,9.5705996,-0.43220899,0.83379102,0.73559701,-0.024367999,-0.67697901,-0.001318,-0.39283437,-1.48169,0.35646861
2536088092384,0.44552166,0,,0.0044823722,-0.0063147581,-0.0079030601,9.5705996,-0.43220899,0.83379102,0.73559701,-0.024367999,-0.67697901,-0.001318,-0.39283437,-1.48169,0.35646861
2536089977632,0.44740691,0,,0.0044823722,-0.0063147581,-0.0079030601,9.5705996,-0.43220899,0.83379102,0.73559701,-0.024367999,-0.67697901,-0.001318,-0.39283437,-1.48169,0.35646861
2536091982560,0.44941184,0,,-0.0050542293,-0.0067164631,-0.0073115335,9.4968605,-0.267499,0.83695698,0.735587,-0.024360999,-0.67698997,-0.001331,-0.3926572,-1.4817284,0.35628448
2536093951936,0.45138122,0,,-0.0050542293,-0.0067164631,-0.0073115335,9.4968605,-0.267499,0.83695698,0.735587,-0.024360999,-0.67698997,-0.001331,-0.3926572,-1.4817284,0.35628448
2536095928320,0.4533576,0,,0.0029533765,-0.0025265734,-0.0024452412,9.5882587,-0.168937,0.81946999,0.73558301,-0.024354,-0.67699403,-0.001346,-0.39238696,-1.4817497,0.35600282
2536097932256,0.45536154,0,,0.0029533765,-0.0025265734,-0.0024452412,9.5882587,-0.168937,0.81946999,0.73558301,-0.024354,-0.67699403,-0.001346,-0.39238696,-1.4817497,0.35600282
2536099934112,0.45736339,0,,0.0029533765,-0.0025265734,-0.0024452412,9.5882587,-0.168937,0.81946999,0.73558301,-0.024354,-0.67699403,-0.001346,-0.39238696,-1.4817497,0.35600282
2536101927328,0.45935661,0,,0.0045316776,-0.006206705,0.0027525414,9.5938797,-0.41239899,0.78018302,0.73557699,-0.024342,-0.67700201,-0.001349,-0.39224867,-1.4817772,0.35587765
2536103931680,0.46136096,0,,0.0045316776,-0.006206705,0.0027525414,9.5938797,-0.41239899,0.78018302,0.73557699,-0.024342,-0.67700201,-0.001349,-0.39224867,-1.4817772,0.35587765
2536105924224,0.4633535,0,,0.00095076808,-1.2967797e-05,0.0061777327,9.5997972,-0.42394799,0.71806997,0.73557299,-0.024348,-0.67700499,-0.001332,-0.39262808,-1.4817724,0.35627147
2536107981440,0.46541072,0,,0.00095076808,-1.2967797e-05,0.0061777327,9.5997972,-0.42394799,0.71806997,0.73557299,-0.024348,-0.67700499,-0.001332,-0.39262808,-1.4817724,0.35627147
2536109965696,0.46739498,0,,0.00095076808,-1.2967797e-05,0.0061777327,9.5997972,-0.42394799,0.71806997,0.73557299,-0.024348,-0.67700499,-0.001332,-0.39262808,-1.4817724,0.35627147
2536111924224,0.4693535,0,,-0.0024143839,-0.0015056955,0.0013926855,9.8570776,-0.26370001,0.73678398,0.73557103,-0.024359001,-0.67700797,-0.0013220001,-0.39295365,-1.4817712,0.35659524
2536113926880,0.47135616,0,,-0.0024143839,-0.0015056955,0.0013926855,9.8570776,-0.26370001,0.73678398,0.73557103,-0.024359001,-0.67700797,-0.0013220001,-0.39295365,-1.4817712,0.35659524
2536115918368,0.47334765,0,,-0.0026688003,-0.004058676,-0.0013204114,9.9935207,-0.26839101,0.80131102,0.73556298,-0.024360999,-0.67701602,-0.001332,-0.39294456,-1.481796,0.35656951
2536117916096,0.47534538,0,,-0.0026688003,-0.004058676,-0.0013204114,9.9935207,-0.26839101,0.80131102,0.73556298,-0.024360999,-0.67701602,-0.001332,-0.39294456,-1.481796,0.35656951
2536119919904,0.47734918,0,,-0.0026688003,-0.004058676,-0.0013204114,9.9935207,-0.26839101,0.80131102,0.73556298,-0.024360999,-0.67701602,-0.001332,-0.39294456,-1.481796,0.35656951
2536121913152,0.47934243,0,,-0.0020189445,-0.0022380706,0.0014784335,10.005765,-0.27935001,0.78193897,0.73555702,-0.024360999,-0.67702198,-0.00134,-0.39290082,-1.4818147,0.35651475
2536124017312,0.48144659,0,,-0.0020189445,-0.0022380706,0.0014784335,10.005765,-0.27935001,0.78193897,0.73555702,-0.024360999,-0.67702198,-0.00134,-0.39290082,-1.4818147,0.35651475
2536125930848,0.48336013,0,,-0.0012538794,-0.0018394723,-0.0014796727,10.036792,-0.327227,0.71290499,0.73555201,-0.024363,-0.677028,-0.001349,-0.3928626,-1.4818328,0.35646185
2536128115456,0.48554474,0,,-0.0012538794,-0.0018394723,-0.0014796727,10.036792,-0.327227,0.71290499,0.73555201,-0.024363,-0.677028,-0.001349,-0.3928626,-1.4818328,0.35646185
2536129913376,0.48734266,0,,-0.0012538794,-0.0018394723,-0.0014796727,10.036792,-0.327227,0.71290499,0.73555201,-0.024363,-0.677028,-0.001349,-0.3928626,-1.4818328,0.35646185
2536131917760,0.48934704,0,,0.0034477757,0.0028508905,-0.0066375394,9.9558449,-0.30240899,0.818753,0.73554999,-0.024351999,-0.67703098,-0.001355,-0.39262851,-1.4818483,0.35623398
2536133928096,0.49135738,0,,0.0034477757,0.0028508905,-0.0066375394,9.9558449,-0.30240899,0.818753,0.73554999,-0.024351999,-0.67703098,-0.001355,-0.39262851,-1.4818483,0.35623398
2536135910240,0.49333952,0,,-0.0034904315,-0.0022733786,-0.0044480241,9.8533659,-0.183001,0.76185,0.73555201,-0.02434,-0.67702901,-0.0013689999,-0.39223303,-1.481857,0.35583537
2536137937952,0.49536723,0,,-0.0034904315,-0.0022733786,-0.0044480241,9.8533659,-0.183001,0.76185,0.73555201,-0.02434,-0.67702901,-0.0013689999,-0.39223303,-1.481857,0.35583537
2536139950784,0.49738006,0,,-0.0034904315,-0.0022733786,-0.0044480241,9.8533659,-0.183001,0.76185,0.73555201,-0.02434,-0.67702901,-0.0013689999,-0.39223303,-1.481857,0.35583537
2536141944032,0.49937331,0,,-0.004422193,-0.0023111302,0.002592128,9.7093515,-0.35862899,0.705284,0.73554599,-0.024341,-0.67703497,-0.0013839999,-0.39209767,-1.4818792,0.35567698
2536143937088,0.50136637,0,,-0.004422193,-0.0023111302,0.002592128,9.7093515,-0.35862899,0.705284,0.73554599,-0.024341,-0.67703497,-0.0013839999,-0.39209767,-1.4818792,0.35567698
2536145932384,0.50336166,0,,0.0022518065,0.0054400168,-0.0015472519,9.5879135,-0.401777,0.77634001,0.73554599,-0.024343001,-0.67703497,-0.001385,-0.39212767,-1.4818798,0.35570398
2536148104640,0.50553392,0,,0.0022518065,0.0054400168,-0.0015472519,9.5879135,-0.401777,0.77634001,0.73554599,-0.024343001,-0.67703497,-0.001385,-0.39212767,-1.4818798,0.35570398
2536149963744,0.50739302,0,,0.0022518065,0.0054400168,-0.0015472519,9.5879135,-0.401777,0.77634001,0.73554599,-0.024343001,-0.67703497,-0.001385,-0.39212767,-1.4818798,0.35570398
2536151934528,0.50936381,0,,-0.00022800981,0.0029357835,-0.0029323102,9.6716223,-0.34633401,0.79625499,0.73555499,-0.024341,-0.67702597,-0.0013839999,-0.39200899,-1.481855,0.35558836
2536153932064,0.51136134,0,,-0.00022800981,0.0029357835,-0.0029323102,9.6716223,-0.34633401,0.79625499,0.73555499,-0.024341,-0.67702597,-0.0013839999,-0.39200899,-1.481855,0.35558836
2536155940032,0.51336931,0,,0.00099131211,-0.00084248789,-0.0038259711,9.6130371,-0.33831301,0.82806301,0.73555601,-0.024334,-0.67702401,-0.001393,-0.39175016,-1.4818595,0.35532691
2536157993696,0.51542298,0,,0.00099131211,-0.00084248789,-0.0038259711,9.6130371,-0.33831301,0.82806301,0.73555601,-0.024334,-0.67702401,-0.001393,-0.39175016,-1.4818595,0.35532691
2536159958336,0.51738762,0,,0.00099131211,-0.00084248789,-0.0038259711,9.6130371,-0.33831301,0.82806301,0.73555601,-0.024334,-0.67702401,-0.001393,-0.39175016,-1.4818595,0.35532691
2536161937568,0.51936685,0,,0.0019236146,0.00039589304,-0.00053630476,9.6499271,-0.3075,0.82987797,0.73555797,-0.024328001,-0.67702198,-0.001395,-0.39160429,-1.4818595,0.35518806
2536163925248,0.52135453,0,,0.0019236146,0.00039589304,-0.00053630476,9.6499271,-0.3075,0.82987797,0.73555797,-0.024328001,-0.67702198,-0.001395,-0.39160429,-1.4818595,0.35518806
2536165918912,0.52334819,0,,-0.0026612256,-0.00046429249,-0.0020154015,9.690506,-0.367147,0.805363,0.73556101,-0.024327001,-0.677019,-0.0013989999,-0.39149766,-1.481853,0.35507651
2536167941056,0.52537034,0,,-0.0026612256,-0.00046429249,-0.0020154015,9.690506,-0.367147,0.805363,0.73556101,-0.024327001,-0.677019,-0.0013989999,-0.39149766,-1.481853,0.35507651
2536169915424,0.5273447,0,,-0.0026612256,-0.00046429249,-0.0020154015,9.690506,-0.367147,0.805363,0.73556101,-0.024327001,-0.677019,-0.0013989999,-0.39149766,-1.481853,0.35507651
2536171919616,0.5293489,0,,-0.0011805058,2.4853489e-05,0.0026498809,9.6845675,-0.41613501,0.85598499,0.73556101,-0.024333,-0.677019,-0.001406,-0.39150455,-1.4818543,0.35506499
2536173914720,0.531344,0,,-0.0011805058,2.4853489e-05,0.0026498809,9.6845675,-0.41613501,0.85598499,0.73556101,-0.024333,-0.677019,-0.001406,-0.39150455,-1.4818543,0.35506499
2536175920000,0.53334928,0,,0.0018708184,-0.00017482963,0.0067620339,9.9122896,-0.374715,0.82979697,0.73556501,-0.024343999,-0.67701399,-0.001393,-0.39179317,-1.4818308,0.35535574
2536177912832,0.53534211,0,,0.0018708184,-0.00017482963,0.0067620339,9.9122896,-0.374715,0.82979697,0.73556501,-0.024343999,-0.67701399,-0.001393,-0.39179317,-1.4818308,0.35535574
2536179912768,0.53734205,0,,0.0018708184,-0.00017482963,0.0067620339,9.9122896,-0.374715,0.82979697,0.73556501,-0.024343999,-0.67701399,-0.001393,-0.39179317,-1.4818308,0.35535574
2536181906496,0.53933578,0,,0.00089688978,0.0015501665,0.0013657725,10.014064,-0.38043499,0.92307502,0.73556799,-0.024349,-0.67701101,-0.001385,-0.39195516,-1.4818147,0.35552305
2536183910752,0.54134003,0,,0.00089688978,0.0015501665,0.0013657725,10.014064,-0.38043499,0.92307502,0.73556799,-0.024349,-0.67701101,-0.001385,-0.39195516,-1.4818147,0.35552305
2536185905344,0.54333462,0,,0.0010645985,0.0018515674,0.0027771329,10.065891,-0.452191,0.89783102,0.73557699,-0.024354,-0.677001,-0.001379,-0.39200982,-1.4817844,0.35557921
2536188102624,0.5455319,0,,0.0010645985,0.0018515674,0.0027771329,10.065891,-0.452191,0.89783102,0.73557699,-0.024354,-0.677001,-0.001379,-0.39200982,-1.4817844,0.35557921
2536190056320,0.5474856,0,,0.0010645985,0.0018515674,0.0027771329,10.065891,-0.452191,0.89783102,0.73557699,-0.024354,-0.677001,-0.001379,-0.39200982,-1.4817844,0.35557921
2536191951680,0.54938096,0,,0.0010645985,0.0018515674,0.0027771329,10.065891,-0.452191,0.89783102,0.73557699,-0.024354,-0.677001,-0.001379,-0.39200982,-1.4817844,0.35557921
2536193946464,0.55137574,0,,-0.0011855673,-0.00011025245,-0.0019548735,9.9638977,-0.47783399,0.83192402,0.73558199,-0.024359001,-0.67699498,-0.001377,-0.3920549,-1.4817663,0.35561889
2536195937792,0.55336707,0,,-0.0063379187,0.0004182158,-0.0019980006,9.8329506,-0.38891101,0.80313301,0.73558301,-0.024367999,-0.67699403,-0.001381,-0.39212444,-1.4817625,0.35567006
2536197968480,0.55539776,0,,-0.0063379187,0.0004182158,-0.0019980006,9.8329506,-0.38891101,0.80313301,0.73558301,-0.024367999,-0.67699403,-0.001381,-0.39212444,-1.4817625,0.35567006
2536199934304,0.55736358,0,,-0.0063379187,0.0004182158,-0.0019980006,9.8329506,-0.38891101,0.80313301,0.73558301,-0.024367999,-0.67699403,-0.001381,-0.39212444,-1.4817625,0.35567006
2536201931648,0.55936093,0,,-0.0046198516,0.00024678955,-0.0084207598,9.7524977,-0.400159,0.77905601,0.73558402,-0.024373,-0.67699301,-0.0014,-0.39192277,-1.4817651,0.35543413
2536203956992,0.56138627,0,,-0.0046198516,0.00024678955,-0.0084207598,9.7524977,-0.400159,0.77905601,0.73558402,-0.024373,-0.67699301,-0.0014,-0.39192277,-1.4817651,0.35543413
2536205930368,0.56335965,0,,2.3125612e-05,-9.7319561e-05,-0.0056148466,9.6546173,-0.249735,0.78382599,0.73558402,-0.024367999,-0.67699301,-0.001417,-0.39158655,-1.4817764,0.35508203
2536208085024,0.5655143,0,,2.3125612e-05,-9.7319561e-05,-0.0056148466,9.6546173,-0.249735,0.78382599,0.73558402,-0.024367999,-0.67699301,-0.001417,-0.39158655,-1.4817764,0.35508203
2536209925760,0.56735504,0,,2.3125612e-05,-9.7319561e-05,-0.0056148466,9.6546173,-0.249735,0.78382599,0.73558402,-0.024367999,-0.67699301,-0.001417,-0.39158655,-1.4817764,0.35508203
2536211927456,0.56935674,0,,0.0027471656,0.001473756,-0.007062492,9.6931915,-0.26176199,0.75978398,0.73558402,-0.024351001,-0.67699403,-0.001431,-0.39114439,-1.4817934,0.35464437
2536213930112,0.57135939,0,,0.0027471656,0.001473756,-0.007062492,9.6931915,-0.26176199,0.75978398,0.73558402,-0.024351001,-0.67699403,-0.001431,-0.39114439,-1.4817934,0.35464437
2536215924832,0.57335411,0,,0.0077204639,0.0072203051,-0.0030291236,9.6011972,-0.299528,0.78515399,0.73559099,-0.024328001,-0.67698598,-0.001435,-0.39065148,-1.4817892,0.35417792
2536217920384,0.57534966,0,,0.0077204639,0.0072203051,-0.0030291236,9.6011972,-0.299528,0.78515399,0.73559099,-0.024328001,-0.67698598,-0.001435,-0.39065148,-1.4817892,0.35417792
2536219921376,0.57735066,0,,0.0077204639,0.0072203051,-0.0030291236,9.6011972,-0.299528,0.78515399,0.73559099,-0.024328001,-0.67698598,-0.001435,-0.39065148,-1.4817892,0.35417792
2536221930016,0.5793593,0,,0.00057138589,0.0031683659,0.00042690752,9.6331291,-0.256769,0.71604598,0.73560101,-0.024317,-0.67697603,-0.001432,-0.39040367,-1.4817663,0.35394932
2536224046048,0.58147533,0,,0.00057138589,0.0031683659,0.00042690752,9.6331291,-0.256769,0.71604598,0.73560101,-0.024317,-0.67697603,-0.001432,-0.39040367,-1.4817663,0.35394932
2536225920384,0.58334966,0,,-0.0013118592,0.0097796737,0.0029767462,9.6320181,-0.273673,0.68676001,0.73560899,-0.024317,-0.67696702,-0.001434,-0.39026632,-1.4817429,0.35380854
2536228111328,0.58554061,0,,-0.0013118592,0.0097796737,0.0029767462,9.6320181,-0.273673,0.68676001,0.73560899,-0.024317,-0.67696702,-0.001434,-0.39026632,-1.4817429,0.35380854
2536229937920,0.5873672,0,,-0.0013118592,0.0097796737,0.0029767462,9.6320181,-0.273673,0.68676001,0.73560899,-0.024317,-0.67696702,-0.001434,-0.39026632,-1.4817429,0.35380854
2536231917664,0.58934694,0,,0.00043155011,0.0072049633,0.0052825355,9.7340136,-0.23231401,0.76001,0.73562098,-0.024320999,-0.67695397,-0.0014290001,-0.39025776,-1.481706,0.35380335
2536233911040,0.59134032,0,,0.00043155011,0.0072049633,0.0052825355,9.7340136,-0.23231401,0.76001,0.73562098,-0.024320999,-0.67695397,-0.0014290001,-0.39025776,-1.481706,0.35380335
2536235915712,0.59334499,0,,-0.003232664,0.0019821355,0.005810166,9.8112249,-0.272964,0.72070003,0.735627,-0.024328999,-0.676947,-0.001426,-0.39035986,-1.4816852,0.35389672
2536237908480,0.59533776,0,,-0.003232664,0.0019821355,0.005810166,9.8112249,-0.272964,0.72070003,0.735627,-0.024328999,-0.676947,-0.001426,-0.39035986,-1.4816852,0.35389672
2536239907680,0.59733696,0,,-0.003232664,0.0019821355,0.005810166,9.8112249,-0.272964,0.72070003,0.735627,-0.024328999,-0.676947,-0.001426,-0.39035986,-1.4816852,0.35389672
2536241905920,0.5993352,0,,-0.00088167049,0.0027107581,0.0047192655,9.9144144,-0.296184,0.80913103,0.73562902,-0.024336999,-0.67694402,-0.001423,-0.390484,-1.4816712,0.35401384
2536243906560,0.60133584,0,,-0.00088167049,0.0027107581,0.0047192655,9.9144144,-0.296184,0.80913103,0.73562902,-0.024336999,-0.67694402,-0.001423,-0.390484,-1.4816712,0.35401384
2536245902144,0.60333142,0,,0.00011547098,0.0040147635,0.0021106441,9.9225588,-0.49735299,0.79784399,0.73563498,-0.024339,-0.676938,-0.001418,-0.39051343,-1.4816533,0.35404736
2536248116960,0.60554624,0,,0.00011547098,0.0040147635,0.0021106441,9.9225588,-0.49735299,0.79784399,0.73563498,-0.024339,-0.676938,-0.001418,-0.39051343,-1.4816533,0.35404736
2536249905792,0.60733507,0,,0.00011547098,0.0040147635,0.0021106441,9.9225588,-0.49735299,0.79784399,0.73563498,-0.024339,-0.676938,-0.001418,-0.39051343,-1.4816533,0.35404736
2536251932128,0.60936141,0,,-0.0070366438,0.0049465773,-0.005977334,9.9430447,-0.39050001,0.80049497,0.73564202,-0.024351001,-0.67693001,-0.001424,-0.39052854,-1.4816298,0.35403877
2536253930112,0.61135939,0,,-0.0070366438,0.0049465773,-0.005977334,9.9430447,-0.39050001,0.80049497,0.73564202,-0.024351001,-0.67693001,-0.001424,-0.39052854,-1.4816298,0.35403877
2536255947392,0.61337667,0,,-0.0049299616,0.0025255438,-0.0080918875,9.959897,-0.21389,0.85096997,0.73565,-0.024351001,-0.67692101,-0.001446,-0.39012274,-1.4816204,0.35360171
2536257974176,0.61540346,0,,-0.0049299616,0.0025255438,-0.0080918875,9.959897,-0.21389,0.85096997,0.73565,-0.024351001,-0.67692101,-0.001446,-0.39012274,-1.4816204,0.35360171
2536259943488,0.61737277,0,,-0.0049299616,0.0025255438,-0.0080918875,9.959897,-0.21389,0.85096997,0.73565,-0.024351001,-0.67692101,-0.001446,-0.39012274,-1.4816204,0.35360171
2536261932352,0.61936163,0,,-0.0018794054,-0.0019191117,-0.0048182431,9.8596935,-0.349711,0.84634298,0.73565,-0.024342,-0.67692202,-0.001472,-0.38961867,-1.4816378,0.35307301
2536263932512,0.62136179,0,,-0.0018794054,-0.0019191117,-0.0048182431,9.8596935,-0.349711,0.84634298,0.73565,-0.024342,-0.67692202,-0.001472,-0.38961867,-1.4816378,0.35307301
2536265927520,0.6233568,0,,-0.0015517722,-0.0020924403,0.0014151129,9.6749926,-0.383499,0.785429,0.73565,-0.024342,-0.67692202,-0.001479,-0.38953185,-1.4816398,0.35297574
2536268118016,0.6255473,0,,-0.0015517722,-0.0020924403,0.0014151129,9.6749926,-0.383499,0.785429,0.73565,-0.024342,-0.67692202,-0.001479,-0.38953185,-1.4816398,0.35297574
2536269926880,0.62735616,0,,-0.0015517722,-0.0020924403,0.0014151129,9.6749926,-0.383499,0.785429,0.73565,-0.024342,-0.67692202,-0.001479,-0.38953185,-1.4816398,0.35297574
2536271929952,0.62935923,0,,-0.0046256112,0.0018273423,0.0045493403,9.6791725,-0.46526,0.79704201,0.73564899,-0.024357,-0.67692202,-0.001477,-0.38979231,-1.4816344,0.35321779
2536273917248,0.63134653,0,,-0.0046256112,0.0018273423,0.0045493403,9.6791725,-0.46526,0.79704201,0.73564899,-0.024357,-0.67692202,-0.001477,-0.38979231,-1.4816344,0.35321779
2536275918208,0.63334749,0,,0.0030698944,0.0044873635,-0.00082494731,9.7077703,-0.40384099,0.92301798,0.73565602,-0.024366001,-0.67691398,-0.001472,-0.38992197,-1.4816079,0.35334176
2536277912064,0.63534134,0,,0.0030698944,0.0044873635,-0.00082494731,9.7077703,-0.40384099,0.92301798,0.73565602,-0.024366001,-0.67691398,-0.001472,-0.38992197,-1.4816079,0.35334176
2536279916960,0.63734624,0,,0.0030698944,0.0044873635,-0.00082494731,9.7077703,-0.40384099,0.92301798,0.73565602,-0.024366001,-0.67691398,-0.001472,-0.38992197,-1.4816079,0.35334176
2536281910528,0.63933981,0,,0.0032181602,-0.0032501696,0.0016466832,9.7821054,-0.28828901,0.87375301,0.73566401,-0.024365,-0.67690599,-0.001464,-0.38992177,-1.4815822,0.35335424
2536283910048,0.64133933,0,,0.0032181602,-0.0032501696,0.0016466832,9.7821054,-0.28828901,0.87375301,0.73566401,-0.024365,-0.67690599,-0.001464,-0.38992177,-1.4815822,0.35335424
2536285910944,0.64334022,0,,-0.00051286501,-0.0059059675,0.00028687976,9.7432165,-0.379094,0.86704099,0.735659,-0.024364,-0.676911,-0.001467,-0.38992806,-1.4815968,0.35335723
2536288099040,0.64552832,0,,-0.00051286501,-0.0059059675,0.00028687976,9.7432165,-0.379094,0.86704099,0.735659,-0.024364,-0.676911,-0.001467,-0.38992806,-1.4815968,0.35335723
2536290014720,0.647444,0,,-0.00051286501,-0.0059059675,0.00028687976,9.7432165,-0.379094,0.86704099,0.735659,-0.024364,-0.676911,-0.001467,-0.38992806,-1.4815968,0.35335723
2536292388096,0.64981738,0,,0.0006605897,-0.0050405634,0.0011793364,9.7506046,-0.41607201,0.835154,0.735654,-0.024369,-0.676916,-0.001466,-0.39007324,-1.4816083,0.35349745
2536294599136,0.65202842,0,,0.0006605897,-0.0050405634,0.0011793364,9.7506046,-0.41607201,0.835154,0.735654,-0.024369,-0.676916,-0.001466,-0.39007324,-1.4816083,0.35349745
2536297326848,0.65475613,0,,0.0006605897,-0.0050405634,0.0011793364,9.7506046,-0.41607201,0.835154,0.735654,-0.024369,-0.676916,-0.001466,-0.39007324,-1.4816083,0.35349745
2536298878752,0.65630803,0,,0.0006605897,-0.0050405634,0.0011793364,9.7506046,-0.41607201,0.835154,0.735654,-0.024369,-0.676916,-0.001466,-0.39007324,-1.4816083,0.35349745
2536300194624,0.6576239,0,,0.0006605897,-0.0050405634,0.0011793364,9.7506046,-0.41607201,0.835154,0.735654,-0.024369,-0.676916,-0.001466,-0.39007324,-1.4816083,0.35349745
2536302093248,0.65952253,0,,0.0017223084,-0.0021317103,0.0017735338,9.7436762,-0.42659,0.76375997,0.73563999,-0.024374999,-0.67693102,-0.001448,-0.39058943,-1.4816324,0.35402968
2536303945344,0.66137462,0,,0.0017223084,-0.0021317103,0.0017735338,9.7436762,-0.42659,0.76375997,0.73563999,-0.024374999,-0.67693102,-0.001448,-0.39058943,-1.4816324,0.35402968
2536305920608,0.66334989,0,,-0.0026812097,-0.003460639,-0.0015012972,9.9040899,-0.268702,0.86121798,0.73563701,-0.024377,-0.67693502,-0.0014449999,-0.39070897,-1.4816412,0.35415182
2536308100608,0.66552989,0,,-0.0026812097,-0.003460639,-0.0015012972,9.9040899,-0.268702,0.86121798,0.73563701,-0.024377,-0.67693502,-0.0014449999,-0.39070897,-1.4816412,0.35415182
2536309939040,0.66736832,0,,-0.0026812097,-0.003460639,-0.0015012972,9.9040899,-0.268702,0.86121798,0.73563701,-0.024377,-0.67693502,-0.0014449999,-0.39070897,-1.4816412,0.35415182
2536312044032,0.66947331,0,,-0.003179955,-0.0022950033,-0.0038423948,9.8856392,-0.30542699,0.82719499,0.735632,-0.024379,-0.67694002,-0.0014609999,-0.39056303,-1.4816619,0.35398068
2536314076544,0.67150582,0,,-0.003179955,-0.0022950033,-0.0038423948,9.8856392,-0.30542699,0.82719499,0.735632,-0.024379,-0.67694002,-0.0014609999,-0.39056303,-1.4816619,0.35398068
2536315969376,0.67339866,0,,0.00043598323,0.0029121516,0.00044242352,9.8839903,-0.27072901,0.81183398,0.73563498,-0.024377,-0.67693698,-0.001468,-0.39041033,-1.4816585,0.35381979
2536317935584,0.67536486,0,,0.00043598323,0.0029121516,0.00044242352,9.8839903,-0.27072901,0.81183398,0.73563498,-0.024377,-0.67693698,-0.001468,-0.39041033,-1.4816585,0.35381979
2536319929600,0.67735888,0,,0.00043598323,0.0029121516,0.00044242352,9.8839903,-0.27072901,0.81183398,0.73563498,-0.024377,-0.67693698,-0.001468,-0.39041033,-1.4816585,0.35381979
2536321921632,0.67935091,0,,-0.00073005379,-0.0031623795,-0.0014171376,9.8562794,-0.26610401,0.76652402,0.73563498,-0.024372,-0.67693698,-0.001477,-0.39019315,-1.4816658,0.35359795
2536323936096,0.68136538,0,,-0.00073005379,-0.0031623795,-0.0014171376,9.8562794,-0.26610401,0.76652402,0.73563498,-0.024372,-0.67693698,-0.001477,-0.39019315,-1.4816658,0.35359795
2536325919360,0.68334864,0,,0.00028752553,-0.007015159,0.0012817174,9.7143736,-0.30342299,0.70604199,0.73562598,-0.024369,-0.676947,-0.001481,-0.39020896,-1.4816948,0.35361287
2536328088000,0.68551728,0,,0.00028752553,-0.007015159,0.0012817174,9.7143736,-0.30342299,0.70604199,0.73562598,-0.024369,-0.676947,-0.001481,-0.39020896,-1.4816948,0.35361287
2536329919744,0.68734902,0,,0.00028752553,-0.007015159,0.0012817174,9.7143736,-0.30342299,0.70604199,0.73562598,-0.024369,-0.676947,-0.001481,-0.39020896,-1.4816948,0.35361287
2536331944128,0.68937341,0,,-0.0028461783,-0.0041649491,0.0028280095,9.6486921,-0.31139901,0.68159002,0.73561001,-0.024374999,-0.67696398,-0.00148,-0.39048899,-1.4817329,0.35388561
2536333961568,0.69139085,0,,-0.0028461783,-0.0041649491,0.0028280095,9.6486921,-0.31139901,0.68159002,0.73561001,-0.024374999,-0.67696398,-0.00148,-0.39048899,-1.4817329,0.35388561
2536335927616,0.6933569,0,,-0.0022170044,0.0032426473,-0.0010112612,9.7328787,-0.26562601,0.71372801,0.73560601,-0.024377,-0.67696798,-0.001481,-0.39057298,-1.4817443,0.35396497
2536337924192,0.69535347,0,,-0.0022170044,0.0032426473,-0.0010112612,9.7328787,-0.26562601,0.71372801,0.73560601,-0.024377,-0.67696798,-0.001481,-0.39057298,-1.4817443,0.35396497
2536339924032,0.69735331,0,,-0.0022170044,0.0032426473,-0.0010112612,9.7328787,-0.26562601,0.71372801,0.73560601,-0.024377,-0.67696798,-0.001481,-0.39057298,-1.4817443,0.35396497
2536341921440,0.69935072,0,,-0.0048815113,0.00047493899,0.0028626716,9.6601286,-0.33481699,0.76580101,0.73560697,-0.02438,-0.67696702,-0.0014900001,-0.39047058,-1.481745,0.35384626
2536343985632,0.70141491,0,,-0.0048815113,0.00047493899,0.0028626716,9.6601286,-0.33481699,0.76580101,0.73560697,-0.02438,-0.67696702,-0.0014900001,-0.39047058,-1.481745,0.35384626
2536345922912,0.70335219,0,,-0.005299483,-0.0019161447,0.0053441633,9.6996679,-0.139708,0.77057099,0.73560601,-0.024397001,-0.67696798,-0.001489,-0.39075284,-1.4817376,0.35410558
2536348126336,0.70555562,0,,-0.005299483,-0.0019161447,0.0053441633,9.6996679,-0.139708,0.77057099,0.73560601,-0.024397001,-0.67696798,-0.001489,-0.39075284,-1.4817376,0.35410558
2536349960032,0.70738931,0,,-0.005299483,-0.0019161447,0.0053441633,9.6996679,-0.139708,0.77057099,0.73560601,-0.024397001,-0.67696798,-0.001489,-0.39075284,-1.4817376,0.35410558
2536351944992,0.70937427,0,,-0.0029452432,0.00026785568,0.0055527824,9.7539749,-0.19898699,0.81452602,0.735605,-0.024404,-0.67696899,-0.001498,-0.39075507,-1.4817404,0.35408521
2536353917920,0.7113472,0,,-0.0029452432,0.00026785568,0.0055527824,9.7539749,-0.19898699,0.81452602,0.735605,-0.024404,-0.67696899,-0.001498,-0.39075507,-1.4817404,0.35408521
2536355917728,0.71334701,0,,-0.0031493245,0.0017426414,0.0078485708,9.7194376,-0.39741799,0.752132,0.73560697,-0.024414999,-0.67696601,-0.001495,-0.39094343,-1.4817268,0.35426151
2536357916032,0.71534531,0,,-0.0031493245,0.0017426414,0.0078485708,9.7194376,-0.39741799,0.752132,0.73560697,-0.024414999,-0.67696601,-0.001495,-0.39094343,-1.4817268,0.35426151
2536359916128,0.71734541,0,,-0.0031493245,0.0017426414,0.0078485708,9.7194376,-0.39741799,0.752132,0.73560697,-0.024414999,-0.67696601,-0.001495,-0.39094343,-1.4817268,0.35426151
2536361917280,0.71934656,0,,-0.0044943798,0.0031279441,0.0091888098,9.7879829,-0.38046199,0.77045298,0.73561102,-0.024439,-0.676961,-0.001484,-0.39141471,-1.4816968,0.35471385
2536363941696,0.72137098,0,,-0.0044943798,0.0031279441,0.0091888098,9.7879829,-0.38046199,0.77045298,0.73561102,-0.024439,-0.676961,-0.001484,-0.39141471,-1.4816968,0.35471385
2536365920480,0.72334976,0,,0.0019872842,0.0011122634,0.0068932305,9.9104748,-0.44949201,0.87943202,0.73561502,-0.024455,-0.676956,-0.001471,-0.39179238,-1.4816691,0.35508782
2536367979744,0.72540902,0,,0.0019872842,0.0011122634,0.0068932305,9.9104748,-0.44949201,0.87943202,0.73561502,-0.024455,-0.676956,-0.001471,-0.39179238,-1.4816691,0.35508782
2536369938400,0.72736768,0,,0.0019872842,0.0011122634,0.0068932305,9.9104748,-0.44949201,0.87943202,0.73561502,-0.024455,-0.676956,-0.001471,-0.39179238,-1.4816691,0.35508782
2536371937632,0.72936691,0,,0.0023920261,0.0025226466,0.0082379193,9.9198875,-0.427742,0.82097,0.73562002,-0.024468999,-0.67694998,-0.001452,-0.39220463,-1.4816378,0.355508
2536373933856,0.73136314,0,,0.0023920261,0.0025226466,0.0082379193,9.9198875,-0.427742,0.82097,0.73562002,-0.024468999,-0.67694998,-0.001452,-0.39220463,-1.4816378,0.355508
2536375932832,0.73336211,0,,-0.0069745276,-0.0011071321,0.0024673719,9.8736639,-0.32855099,0.84603101,0.73562497,-0.024484999,-0.67694402,-0.0014440001,-0.39250261,-1.4816144,0.35579389
2536377934528,0.73536381,0,,-0.0069745276,-0.0011071321,0.0024673719,9.8736639,-0.32855099,0.84603101,0.73562497,-0.024484999,-0.67694402,-0.0014440001,-0.39250261,-1.4816144,0.35579389
2536379931104,0.73736038,0,,-0.0069745276,-0.0011071321,0.0024673719,9.8736639,-0.32855099,0.84603101,0.73562497,-0.024484999,-0.67694402,-0.0014440001,-0.39250261,-1.4816144,0.35579389
2536381931488,0.73936077,0,,-0.00610867,-0.0024624851,0.0054911375,9.8027096,-0.40636501,0.85817897,0.735623,-0.024504,-0.67694598,-0.001449,-0.39274133,-1.4816111,0.35599816
2536384040096,0.74146938,0,,-0.00610867,-0.0024624851,0.0054911375,9.8027096,-0.40636501,0.85817897,0.735623,-0.024504,-0.67694598,-0.001449,-0.39274133,-1.4816111,0.35599816
2536385937824,0.7433671,0,,0.00088428853,-0.0046076869,0.0026272966,9.811924,-0.38721499,0.84999299,0.73561901,-0.024521999,-0.67694902,-0.001448,-0.39308115,-1.4816104,0.35631361
2536388090624,0.7455199,0,,0.00088428853,-0.0046076869,0.0026272966,9.811924,-0.38721499,0.84999299,0.73561901,-0.024521999,-0.67694902,-0.001448,-0.39308115,-1.4816104,0.35631361
2536389940128,0.74736941,0,,0.00088428853,-0.0046076869,0.0026272966,9.811924,-0.38721499,0.84999299,0.73561901,-0.024521999,-0.67694902,-0.001448,-0.39308115,-1.4816104,0.35631361
2536391926272,0.74935555,0,,0.0008063072,0.001085874,0.0042798965,9.6760674,-0.40961501,0.82323897,0.735618,-0.024526,-0.67694998,-0.001439,-0.39330049,-1.4816057,0.35654104
2536393924512,0.75135379,0,,0.0008063072,0.001085874,0.0042798965,9.6760674,-0.40961501,0.82323897,0.735618,-0.024526,-0.67694998,-0.001439,-0.39330049,-1.4816057,0.35654104
2536395922080,0.75335136,0,,0.002573296,0.0028678203,0.0016811535,9.765974,-0.39854401,0.85041302,0.73562402,-0.024532,-0.676943,-0.001431,-0.3934225,-1.4815818,0.35666382
2536397924928,0.75535421,0,,0.002573296,0.0028678203,0.0016811535,9.765974,-0.39854401,0.85041302,0.73562402,-0.024532,-0.676943,-0.001431,-0.3934225,-1.4815818,0.35666382
2536399924704,0.75735398,0,,0.002573296,0.0028678203,0.0016811535,9.765974,-0.39854401,0.85041302,0.73562402,-0.024532,-0.676943,-0.001431,-0.3934225,-1.4815818,0.35666382
2536401916864,0.75934614,0,,-0.0052619933,-0.0017846341,0.0053963488,9.6374598,-0.32445699,0.81387299,0.735627,-0.024542,-0.67694002,-0.001426,-0.39359983,-1.4815649,0.35683566
2536403916864,0.76134614,0,,-0.0052619933,-0.0017846341,0.0053963488,9.6374598,-0.32445699,0.81387299,0.735627,-0.024542,-0.67694002,-0.001426,-0.39359983,-1.4815649,0.35683566
2536405916256,0.76334554,0,,-0.0052619933,-0.0017846341,0.0053963488,9.6374598,-0.32445699,0.81387299,0.735627,-0.024542,-0.67694002,-0.001426,-0.39359983,-1.4815649,0.35683566
2536408104864,0.76553414,0,,-0.0049007272,-0.0026896221,0.010848705,9.7804737,-0.300502,0.80170298,0.73562497,-0.024566,-0.67694098,-0.001424,-0.39401715,-1.4815555,0.35722155
2536409933504,0.76736278,0,,-0.0049007272,-0.0026896221,0.010848705,9.7804737,-0.300502,0.80170298,0.73562497,-0.024566,-0.67694098,-0.001424,-0.39401715,-1.4815555,0.35722155
2536411921280,0.76935056,0,,-0.0040089339,-0.0071073647,0.013005251,9.743618,-0.366395,0.78742301,0.735618,-0.024594,-0.676947,-0.00141,-0.39472212,-1.4815502,0.35790728
2536413922912,0.77135219,0,,-0.0040089339,-0.0071073647,0.013005251,9.743618,-0.366395,0.78742301,0.735618,-0.024594,-0.676947,-0.00141,-0.39472212,-1.4815502,0.35790728
2536415920384,0.77334966,0,,0.00052356388,-0.0063184059,0.0032357007,9.7951145,-0.434524,0.76918501,0.735605,-0.02461,-0.676961,-0.0013980001,-0.39529357,-1.4815708,0.35847174
2536417917664,0.77534694,0,,0.00052356388,-0.0063184059,0.0032357007,9.7951145,-0.434524,0.76918501,0.735605,-0.02461,-0.676961,-0.0013980001,-0.39529357,-1.4815708,0.35847174
2536419939136,0.77736842,0,,0.00052356388,-0.0063184059,0.0032357007,9.7951145,-0.434524,0.76918501,0.735605,-0.02461,-0.676961,-0.0013980001,-0.39529357,-1.4815708,0.35847174
2536421937696,0.77936698,0,,-0.0014123205,0.0026997101,0.0095656606,9.6541185,-0.32144699,0.72481197,0.73560101,-0.024623999,-0.676965,-0.001385,-0.39574251,-1.4815676,0.35891958
2536423985120,0.7814144,0,,-0.0014123205,0.0026997101,0.0095656606,9.6541185,-0.32144699,0.72481197,0.73560101,-0.024623999,-0.676965,-0.001385,-0.39574251,-1.4815676,0.35891958
2536425929408,0.78335869,0,,0.0022576881,0.0039524028,0.01207417,9.8484125,-0.18792599,0.79357797,0.73560601,-0.024639999,-0.67695898,-0.001367,-0.39619192,-1.4815374,0.35937238
2536428092512,0.78552179,0,,0.0022576881,0.0039524028,0.01207417,9.8484125,-0.18792599,0.79357797,0.73560601,-0.024639999,-0.67695898,-0.001367,-0.39619192,-1.4815374,0.35937238
2536429932224,0.7873615,0,,0.0022576881,0.0039524028,0.01207417,9.8484125,-0.18792599,0.79357797,0.73560601,-0.024639999,-0.67695898,-0.001367,-0.39619192,-1.4815374,0.35937238
2536431976416,0.7894057,0,,0.0039823876,0.0018733142,0.014824443,9.8497782,-0.169983,0.790007,0.73561102,-0.024652001,-0.67695302,-0.001341,-0.39666576,-1.4815,0.35986707
2536433930880,0.79136016,0,,0.0039823876,0.0018733142,0.014824443,9.8497782,-0.169983,0.790007,0.73561102,-0.024652001,-0.67695302,-0.001341,-0.39666576,-1.4815,0.35986707
2536435935008,0.79336429,0,,0.0022990349,0.003870669,0.013987051,9.7042246,-0.29877299,0.72598398,0.73561597,-0.024661001,-0.67694801,-0.00132,-0.39704566,-1.4814727,0.36026168
2536437928960,0.79535824,0,,0.0022990349,0.003870669,0.013987051,9.7042246,-0.29877299,0.72598398,0.73561597,-0.024661001,-0.67694801,-0.00132,-0.39704566,-1.4814727,0.36026168
2536439926144,0.79735542,0,,0.0022990349,0.003870669,0.013987051,9.7042246,-0.29877299,0.72598398,0.73561597,-0.024661001,-0.67694801,-0.00132,-0.39704566,-1.4814727,0.36026168
2536441929824,0.7993591,0,,-0.00015512486,0.0012432155,0.01834437,9.7912025,-0.34462899,0.74131799,0.735618,-0.024683001,-0.67694402,-0.001289,-0.39778202,-1.4814399,0.36101203
2536443996800,0.80142608,0,,-0.00015512486,0.0012432155,0.01834437,9.7912025,-0.34462899,0.74131799,0.735618,-0.024683001,-0.67694402,-0.001289,-0.39778202,-1.4814399,0.36101203
2536445925888,0.80335517,0,,-0.0037537495,0.0033457787,0.018040963,9.7686043,-0.30765599,0.727759,0.73561901,-0.024721,-0.67694199,-0.001259,-0.3987635,-1.4813977,0.36198308
2536448103872,0.80553315,0,,-0.0037537495,0.0033457787,0.018040963,9.7686043,-0.30765599,0.727759,0.73561901,-0.024721,-0.67694199,-0.001259,-0.3987635,-1.4813977,0.36198308
2536449934432,0.80736371,0,,-0.0037537495,0.0033457787,0.018040963,9.7686043,-0.30765599,0.727759,0.73561901,-0.024721,-0.67694199,-0.001259,-0.3987635,-1.4813977,0.36198308
2536451927584,0.80935686,0,,0.0026858349,0.0087996013,0.015091216,9.6907558,-0.31638801,0.76935899,0.735627,-0.024744,-0.67693299,-0.001232,-0.39938691,-1.4813485,0.36261132
2536453921440,0.81135072,0,,0.0026858349,0.0087996013,0.015091216,9.6907558,-0.31638801,0.76935899,0.735627,-0.024744,-0.67693299,-0.001232,-0.39938691,-1.4813485,0.36261132
2536455918272,0.81334755,0,,0.00039496802,0.0069545263,0.014695655,9.8374491,-0.16545001,0.81932402,0.73564202,-0.024766,-0.67691499,-0.001205,-0.3999247,-1.4812778,0.36315654
2536457917088,0.81534637,0,,0.00039496802,0.0069545263,0.014695655,9.8374491,-0.16545001,0.81932402,0.73564202,-0.024766,-0.67691499,-0.001205,-0.3999247,-1.4812778,0.36315654
2536459918272,0.81734755,0,,0.00039496802,0.0069545263,0.014695655,9.8374491,-0.16545001,0.81932402,0.73564202,-0.024766,-0.67691499,-0.001205,-0.3999247,-1.4812778,0.36315654
2536461934208,0.81936349,0,,-0.0008801172,0.0052322002,0.017911652,9.6416006,-0.413261,0.72619098,0.73565102,-0.024785999,-0.67690498,-0.001186,-0.4003864,-1.4812332,0.36361616
2536464010432,0.82143971,0,,-0.0008801172,0.0052322002,0.017911652,9.6416006,-0.413261,0.72619098,0.73565102,-0.024785999,-0.67690498,-0.001186,-0.4003864,-1.4812332,0.36361616
2536465971264,0.82340054,0,,0.0028293881,0.0090864112,0.013840409,9.7595148,-0.449626,0.82166898,0.73566097,-0.024816999,-0.676893,-0.001153,-0.40118797,-1.4811718,0.36441984
2536468102720,0.825532,0,,0.0028293881,0.0090864112,0.013840409,9.7595148,-0.449626,0.82166898,0.73566097,-0.024816999,-0.676893,-0.001153,-0.40118797,-1.4811718,0.36441984
2536469919168,0.82734845,0,,0.0028293881,0.0090864112,0.013840409,9.7595148,-0.449626,0.82166898,0.73566097,-0.024816999,-0.676893,-0.001153,-0.40118797,-1.4811718,0.36441984
2536471927296,0.82935658,0,,0.0021566161,0.0054749931,0.010083971,9.8916769,-0.304851,0.85587901,0.73567599,-0.024837,-0.67687601,-0.001121,-0.40173932,-1.4811012,0.36498859
2536473917312,0.83134659,0,,0.0021566161,0.0054749931,0.010083971,9.8916769,-0.304851,0.85587901,0.73567599,-0.024837,-0.67687601,-0.001121,-0.40173932,-1.4811012,0.36498859
2536475922336,0.83335162,0,,0.0022228165,0.006598793,0.012790349,9.7711897,-0.31642899,0.83694398,0.73569,-0.024847999,-0.67686099,-0.001103,-0.40199455,-1.4810478,0.36525378
2536477939872,0.83536915,0,,0.0022228165,0.006598793,0.012790349,9.7711897,-0.31642899,0.83694398,0.73569,-0.024847999,-0.67686099,-0.001103,-0.40199455,-1.4810478,0.36525378
2536479920352,0.83734963,0,,0.0022228165,0.006598793,0.012790349,9.7711897,-0.31642899,0.83694398,0.73569,-0.024847999,-0.67686099,-0.001103,-0.40199455,-1.4810478,0.36525378
2536481919296,0.83934858,0,,0.0058214059,0.0028719568,0.022398822,9.8893795,-0.27276,0.87426102,0.73570102,-0.024873,-0.67684799,-0.001068,-0.40272731,-1.4809868,0.36600116
2536483932608,0.84136189,0,,0.0058214059,0.0028719568,0.022398822,9.8893795,-0.27276,0.87426102,0.73570102,-0.024873,-0.67684799,-0.001068,-0.40272731,-1.4809868,0.36600116
2536485931264,0.84336054,0,,0.0031264432,0.0020410404,0.024435656,9.7604818,-0.33495599,0.831222,0.73571002,-0.024901001,-0.67683798,-0.001022,-0.40368086,-1.4809224,0.36697954
2536488085216,0.8455145,0,,0.0031264432,0.0020410404,0.024435656,9.7604818,-0.33495599,0.831222,0.73571002,-0.024901001,-0.67683798,-0.001022,-0.40368086,-1.4809224,0.36697954
2536489940544,0.84736982,0,,0.0031264432,0.0020410404,0.024435656,9.7604818,-0.33495599,0.831222,0.73571002,-0.024901001,-0.67683798,-0.001022,-0.40368086,-1.4809224,0.36697954
2536491926752,0.84935603,0,,0.00060601323,0.0023693892,0.025217372,9.6218147,-0.51165402,0.79045898,0.73571497,-0.024938,-0.67682999,-0.00097599998,-0.40480947,-1.4808586,0.36812053
2536493937024,0.8513663,0,,0.00060601323,0.0023693892,0.025217372,9.6218147,-0.51165402,0.79045898,0.73571497,-0.024938,-0.67682999,-0.00097599998,-0.40480947,-1.4808586,0.36812053
2536495925376,0.85335466,0,,0.0082306934,0.0078102962,0.021454844,9.6919765,-0.47205299,0.80670798,0.73572499,-0.024976,-0.67681801,-0.00091900001,-0.40605324,-1.4807809,0.36939136
2536497965952,0.85539523,0,,0.0082306934,0.0078102962,0.021454844,9.6919765,-0.47205299,0.80670798,0.73572499,-0.024976,-0.67681801,-0.00091900001,-0.40605324,-1.4807809,0.36939136
2536499946144,0.85737542,0,,0.0082306934,0.0078102962,0.021454844,9.6919765,-0.47205299,0.80670798,0.73572499,-0.024976,-0.67681801,-0.00091900001,-0.40605324,-1.4807809,0.36939136
2536501925152,0.85935443,0,,0.0033532662,0.0114118,0.030842324,9.6589689,-0.35032099,0.87903398,0.73574299,-0.025014,-0.67679799,-0.00085900002,-0.40723099,-1.4806784,0.3706011
2536503951552,0.86138083,0,,0.0033532662,0.0114118,0.030842324,9.6589689,-0.35032099,0.87903398,0.73574299,-0.025014,-0.67679799,-0.00085900002,-0.40723099,-1.4806784,0.3706011
2536505923520,0.8633528,0,,-0.0019133347,0.00282033,0.029877488,9.7630272,-0.249313,0.90928197,0.73576099,-0.025068,-0.67677599,-0.00080500002,-0.40856796,-1.4805686,0.37193751
2536508077600,0.86550688,0,,-0.0019133347,0.00282033,0.029877488,9.7630272,-0.249313,0.90928197,0.73576099,-0.025068,-0.67677599,-0.00080500002,-0.40856796,-1.4805686,0.37193751
2536509921120,0.8673504,0,,-0.0019133347,0.00282033,0.029877488,9.7630272,-0.249313,0.90928197,0.73576099,-0.025068,-0.67677599,-0.00080500002,-0.40856796,-1.4805686,0.37193751
2536511911232,0.86934051,0,,0.0047345548,-0.0015885812,0.028456983,9.7696714,-0.38538799,0.86224198,0.73576403,-0.025111999,-0.67677099,-0.00075800001,-0.40982264,-1.4805062,0.37319579
2536513904768,0.87133405,0,,0.0047345548,-0.0015885812,0.028456983,9.7696714,-0.38538799,0.86224198,0.73576403,-0.025111999,-0.67677099,-0.00075800001,-0.40982264,-1.4805062,0.37319579
2536515906592,0.87333587,0,,0.009463803,0.002937616,0.027962478,9.8564529,-0.431656,0.76835698,0.73576999,-0.025147,-0.676763,-0.000695,-0.41114131,-1.480437,0.37455467
2536517902720,0.875332,0,,0.009463803,0.002937616,0.027962478,9.8564529,-0.431656,0.76835698,0.73576999,-0.025147,-0.676763,-0.000695,-0.41114131,-1.480437,0.37455467
2536519908768,0.87733805,0,,0.009463803,0.002937616,0.027962478,9.8564529,-0.431656,0.76835698,0.73576999,-0.025147,-0.676763,-0.000695,-0.41114131,-1.480437,0.37455467
2536521902848,0.87933213,0,,0.0040480467,0.0066898123,0.023289883,9.8005409,-0.50323701,0.73459399,0.73577797,-0.025180001,-0.676754,-0.000635,-0.4123647,-1.4803663,0.375817
2536523903328,0.88133261,0,,0.0040480467,0.0066898123,0.023289883,9.8005409,-0.50323701,0.73459399,0.73577797,-0.025180001,-0.676754,-0.000635,-0.4123647,-1.4803663,0.375817
2536525916352,0.88334563,0,,0.0054133134,0.0051339556,0.022560457,9.9502115,-0.27539599,0.82076198,0.73578697,-0.025214,-0.67674202,-0.000581,-0.41351282,-1.4802871,0.37699202
2536528093600,0.88552288,0,,0.0054133134,0.0051339556,0.022560457,9.9502115,-0.27539599,0.82076198,0.73578697,-0.025214,-0.67674202,-0.000581,-0.41351282,-1.4802871,0.37699202
2536529912192,0.88734147,0,,0.0054133134,0.0051339556,0.022560457,9.9502115,-0.27539599,0.82076198,0.73578697,-0.025214,-0.67674202,-0.000581,-0.41351282,-1.4802871,0.37699202
2536531991232,0.88942051,0,,0.0099450601,0.0017361662,0.018469598,10.005444,-0.28740299,0.86245102,0.73579401,-0.025233001,-0.67673397,-0.00053600001,-0.41430581,-1.4802337,0.37782243
2536533944032,0.89137331,0,,0.0099450601,0.0017361662,0.018469598,10.005444,-0.28740299,0.86245102,0.73579401,-0.025233001,-0.67673397,-0.00053600001,-0.41430581,-1.4802337,0.37782243
2536535929120,0.8933584,0,,0.010804251,0.0026407006,0.020075143,9.8768024,-0.45666799,0.73966098,0.73579901,-0.02524,-0.67672801,-0.00048700001,-0.41502659,-1.4801889,0.37860111
2536537908288,0.89533757,0,,0.010804251,0.0026407006,0.020075143,9.8768024,-0.45666799,0.73966098,0.73579901,-0.02524,-0.67672801,-0.00048700001,-0.41502659,-1.4801889,0.37860111
2536539932672,0.89736195,0,,0.010804251,0.0026407006,0.020075143,9.8768024,-0.45666799,0.73966098,0.73579901,-0.02524,-0.67672801,-0.00048700001,-0.41502659,-1.4801889,0.37860111
2536541921984,0.89935126,0,,0.0034660493,0.0013149136,0.015802473,9.8168974,-0.384312,0.770509,0.73580098,-0.025257999,-0.67672497,-0.00043700001,-0.41595693,-1.4801449,0.37957809
2536543949536,0.90137882,0,,0.0034660493,0.0013149136,0.015802473,9.8168974,-0.384312,0.770509,0.73580098,-0.025257999,-0.67672497,-0.00043700001,-0.41595693,-1.4801449,0.37957809
2536545984096,0.90341338,0,,0.00082985172,0.0021376094,0.016720883,9.8275118,-0.129682,0.84136301,0.73580498,-0.025285,-0.67672002,-0.00040300001,-0.41676467,-1.4801001,0.38039644
2536548082272,0.90551155,0,,0.00082985172,0.0021376094,0.016720883,9.8275118,-0.129682,0.84136301,0.73580498,-0.025285,-0.67672002,-0.00040300001,-0.41676467,-1.4801001,0.38039644
2536549924640,0.90735392,0,,0.00082985172,0.0021376094,0.016720883,9.8275118,-0.129682,0.84136301,0.73580498,-0.025285,-0.67672002,-0.00040300001,-0.41676467,-1.4801001,0.38039644
2536551926080,0.90935536,0,,0.0069417853,0.0067672874,0.025308548,9.7105207,-0.177867,0.75831401,0.73581302,-0.025303001,-0.67671102,-0.00037299999,-0.41733612,-1.4800526,0.38098523
2536553921184,0.91135046,0,,0.0069417853,0.0067672874,0.025308548,9.7105207,-0.177867,0.75831401,0.73581302,-0.025303001,-0.67671102,-0.00037299999,-0.41733612,-1.4800526,0.38098523
2536555920448,0.91334973,0,,0.012167877,0.010080725,0.040623514,9.5974464,-0.217848,0.74509299,0.73582697,-0.025333,-0.67669398,-0.00030399999,-0.41854652,-1.4799567,0.38225004
2536557932704,0.91536198,0,,0.012167877,0.010080725,0.040623514,9.5974464,-0.217848,0.74509299,0.73582697,-0.025333,-0.67669398,-0.00030399999,-0.41854652,-1.4799567,0.38225004
2536559920704,0.91734998,0,,0.012167877,0.010080725,0.040623514,9.5974464,-0.217848,0.74509299,0.73582697,-0.025333,-0.67669398,-0.00030399999,-0.41854652,-1.4799567,0.38225004
2536561917152,0.91934643,0,,0.010625233,0.0079204439,0.049646974,9.6439629,-0.246172,0.776326,0.735843,-0.025381001,-0.67667502,-0.000208,-0.42037568,-1.4798299,0.38414634
2536563919392,0.92134867,0,,0.010625233,0.0079204439,0.049646974,9.6439629,-0.246172,0.776326,0.735843,-0.025381001,-0.67667502,-0.000208,-0.42037568,-1.4798299,0.38414634
2536565960928,0.92339021,0,,0.0083560258,0.008259753,0.049625681,9.6508255,-0.28675699,0.7802,0.73585701,-0.025444999,-0.67665702,-0.000106,-0.42251134,-1.4796981,0.38633536
2536568107040,0.92553632,0,,0.0083560258,0.008259753,0.049625681,9.6508255,-0.28675699,0.7802,0.73585701,-0.025444999,-0.67665702,-0.000106,-0.42251134,-1.4796981,0.38633536
2536569919488,0.92734877,0,,0.0083560258,0.008259753,0.049625681,9.6508255,-0.28675699,0.7802,0.73585701,-0.025444999,-0.67665702,-0.000106,-0.42251134,-1.4796981,0.38633536
2536571931808,0.92936109,0,,0.011670755,0.0044531726,0.048761148,9.6219721,-0.48705199,0.73509401,0.73586899,-0.025506999,-0.676642,-4e-06,-0.42465705,-1.4795717,0.38853906
2536573939680,0.93136896,0,,0.011670755,0.0044531726,0.048761148,9.6219721,-0.48705199,0.73509401,0.73586899,-0.025506999,-0.676642,-4e-06,-0.42465705,-1.4795717,0.38853906
2536575918592,0.93334787,0,,0.0079159759,0.0064942307,0.044275182,9.688345,-0.40295801,0.78776997,0.73587698,-0.025572,-0.67663199,0.000106,-0.42701847,-1.4794483,0.3909647
2536577915712,0.93534499,0,,0.0079159759,0.0064942307,0.044275182,9.688345,-0.40295801,0.78776997,0.73587698,-0.025572,-0.67663199,0.000106,-0.42701847,-1.4794483,0.3909647
2536579914240,0.93734352,0,,0.0079159759,0.0064942307,0.044275182,9.688345,-0.40295801,0.78776997,0.73587698,-0.025572,-0.67663199,0.000106,-0.42701847,-1.4794483,0.3909647
2536581916128,0.93934541,0,,0.0051229253,0.001299642,0.035156864,9.9390974,-0.441138,0.83110398,0.73588598,-0.025629999,-0.67662001,0.000191,-0.42890076,-1.4793404,0.3928849
2536583930688,0.94135997,0,,0.0051229253,0.001299642,0.035156864,9.9390974,-0.441138,0.83110398,0.73588598,-0.025629999,-0.67662001,0.000191,-0.42890076,-1.4793404,0.3928849
2536585967008,0.94339629,0,,0.0079341098,0.0061481664,0.028684538,9.8790522,-0.536201,0.80963498,0.735892,-0.025673,-0.67661101,0.00026199999,-0.4303881,-1.4792564,0.39441196
2536588091104,0.94552038,0,,0.0079341098,0.0061481664,0.028684538,9.8790522,-0.536201,0.80963498,0.735892,-0.025673,-0.67661101,0.00026199999,-0.4303881,-1.4792564,0.39441196
2536589931008,0.94736029,0,,0.0079341098,0.0061481664,0.028684538,9.8790522,-0.536201,0.80963498,0.735892,-0.025673,-0.67661101,0.00026199999,-0.4303881,-1.4792564,0.39441196
2536591939168,0.94936845,0,,0.0058743945,0.005639124,0.028181937,9.9200392,-0.46570998,0.84709102,0.73590302,-0.025713,-0.676597,0.000329,-0.43173466,-1.4791644,0.39579727
2536593921088,0.95135037,0,,0.0058743945,0.005639124,0.028181937,9.9200392,-0.46570998,0.84709102,0.73590302,-0.025713,-0.676597,0.000329,-0.43173466,-1.4791644,0.39579727
2536595914208,0.95334349,0,,0.011424838,0.006840696,0.030903132,9.961668,-0.35685599,0.91299701,0.73591799,-0.025751,-0.67658001,0.000398,-0.43304844,-1.4790609,0.39715412
2536597958208,0.95538749,0,,0.011424838,0.006840696,0.030903132,9.961668,-0.35685599,0.91299701,0.73591799,-0.025751,-0.67658001,0.000398,-0.43304844,-1.4790609,0.39715412
2536599925376,0.95735466,0,,0.011424838,0.006840696,0.030903132,9.961668,-0.35685599,0.91299701,0.73591799,-0.025751,-0.67658001,0.000398,-0.43304844,-1.4790609,0.39715412
2536601923136,0.95935242,0,,0.011424838,0.006840696,0.030903132,9.961668,-0.35685599,0.91299701,0.73591799,-0.025751,-0.67658001,0.000398,-0.43304844,-1.4790609,0.39715412
2536603944320,0.9613736,0,,0.011424838,0.006840696,0.030903132,9.961668,-0.35685599,0.91299701,0.73591799,-0.025751,-0.67658001,0.000398,-0.43304844,-1.4790609,0.39715412
2536605920448,0.96334973,0,,0.010470038,0.0003703065,0.033173595,9.758913,-0.67053401,0.865448,0.73594099,-0.025835,-0.676552,0.00055900001,-0.43610668,-1.4788543,0.40032151
2536608077248,0.96550653,0,,0.010470038,0.0003703065,0.033173595,9.758913,-0.67053401,0.865448,0.73594099,-0.025835,-0.676552,0.00055900001,-0.43610668,-1.4788543,0.40032151
2536609958848,0.96738813,0,,0.010470038,0.0003703065,0.033173595,9.758913,-0.67053401,0.865448,0.73594099,-0.025835,-0.676552,0.00055900001,-0.43610668,-1.4788543,0.40032151
2536611923808,0.96935309,0,,0.014455707,0.0090284656,0.031861805,9.7307281,-0.52430499,0.86148202,0.73595399,-0.025881,-0.67653602,0.00065,-0.43782578,-1.4787388,0.4021047
2536613923552,0.97135283,0,,0.014455707,0.0090284656,0.031861805,9.7307281,-0.52430499,0.86148202,0.73595399,-0.025881,-0.67653602,0.00065,-0.43782578,-1.4787388,0.4021047
2536615926880,0.97335616,0,,0.0043066698,0.005225638,0.022961203,9.8789988,-0.45232701,0.87093997,0.73597002,-0.025916999,-0.67651701,0.00072200003,-0.4391004,-1.4786304,0.40342989
2536617914208,0.97534349,0,,0.0043066698,0.005225638,0.022961203,9.8789988,-0.45232701,0.87093997,0.73597002,-0.025916999,-0.67651701,0.00072200003,-0.4391004,-1.4786304,0.40342989
2536619942144,0.97737142,0,,0.0043066698,0.005225638,0.022961203,9.8789988,-0.45232701,0.87093997,0.73597002,-0.025916999,-0.67651701,0.00072200003,-0.4391004,-1.4786304,0.40342989
2536621929664,0.97935894,0,,0.0085616078,0.0020561026,0.016124817,9.7670317,-0.60774302,0.79403299,0.73597699,-0.025939999,-0.67650801,0.00076600001,-0.43992721,-1.4785697,0.40428586
2536623945600,0.98137488,0,,0.0085616078,0.0020561026,0.016124817,9.7670317,-0.60774302,0.79403299,0.73597699,-0.025939999,-0.67650801,0.00076600001,-0.43992721,-1.4785697,0.40428586
2536625925088,0.98335437,0,,0.011156947,-0.0044805397,0.0072847947,9.9440737,-0.39419401,0.84959602,0.73597598,-0.025952,-0.67650801,0.00081599999,-0.44075706,-1.4785367,0.40516943
2536628099584,0.98552886,0,,0.011156947,-0.0044805397,0.0072847947,9.9440737,-0.39419401,0.84959602,0.73597598,-0.025952,-0.67650801,0.00081599999,-0.44075706,-1.4785367,0.40516943
2536629918528,0.98734781,0,,0.011156947,-0.0044805397,0.0072847947,9.9440737,-0.39419401,0.84959602,0.73597598,-0.025952,-0.67650801,0.00081599999,-0.44075706,-1.4785367,0.40516943
2536631985344,0.98941462,0,,0.0049474501,-0.0026282565,0.0059690433,9.8256779,-0.482851,0.798383,0.73597199,-0.025946001,-0.67651302,0.00083999999,-0.44103975,-1.4785379,0.4054952
2536633922976,0.99135226,0,,0.0049474501,-0.0026282565,0.0059690433,9.8256779,-0.482851,0.798383,0.73597199,-0.025946001,-0.67651302,0.00083999999,-0.44103975,-1.4785379,0.4054952
2536635936768,0.99336605,0,,-0.0030103614,-0.0046512499,0.0066292144,9.8055773,-0.424252,0.78272897,0.73596501,-0.025958,-0.67651999,0.00085299998,-0.44148134,-1.4785399,0.40593855
2536637914624,0.9953439,0,,-0.0030103614,-0.0046512499,0.0066292144,9.8055773,-0.424252,0.78272897,0.73596501,-0.025958,-0.67651999,0.00085299998,-0.44148134,-1.4785399,0.40593855
2536639916256,0.99734554,0,,-0.0030103614,-0.0046512499,0.0066292144,9.8055773,-0.424252,0.78272897,0.73596501,-0.025958,-0.67651999,0.00085299998,-0.44148134,-1.4785399,0.40593855
2536641916800,0.99934608,0,,0.008817019,-0.0016608902,0.0076542287,9.9275322,-0.28777599,0.81407702,0.73596001,-0.025968,-0.67652601,0.00087300001,-0.44196736,-1.4785372,0.40643873
2536643943808,1.0013731,0,,0.008817019,-0.0016608902,0.0076542287,9.9275322,-0.28777599,0.81407702,0.73596001,-0.025968,-0.67652601,0.00087300001,-0.44196736,-1.4785372,0.40643873
2536645908800,1.0033381,0,,0.0094327543,-0.00038945278,0.012802426,9.7598324,-0.358165,0.79082602,0.73596102,-0.025965,-0.676525,0.00090099999,-0.44227928,-1.4785199,0.40679366
2536648101536,1.0055308,0,,0.0094327543,-0.00038945278,0.012802426,9.7598324,-0.358165,0.79082602,0.73596102,-0.025965,-0.676525,0.00090099999,-0.44227928,-1.4785199,0.40679366
2536649903872,1.0073332,0,,0.0094327543,-0.00038945278,0.012802426,9.7598324,-0.358165,0.79082602,0.73596102,-0.025965,-0.676525,0.00090099999,-0.44227928,-1.4785199,0.40679366
2536651938432,1.0093677,0,,0.0051095039,-0.0038113976,0.010064877,9.8924789,-0.39374799,0.81706101,0.73595798,-0.025968,-0.67652798,0.000933,-0.44278479,-1.4785082,0.40734068
2536653908992,1.0113383,0,,0.0051095039,-0.0038113976,0.010064877,9.8924789,-0.39374799,0.81706101,0.73595798,-0.025968,-0.67652798,0.000933,-0.44278479,-1.4785082,0.40734068
2536655906048,1.0133353,0,,0.0043330939,-0.0055876891,0.0037924433,9.8259211,-0.40615299,0.78275299,0.73595101,-0.025970001,-0.67653501,0.00095199997,-0.44316595,-1.4785135,0.40774454
2536657922080,1.0153514,0,,0.0043330939,-0.0055876891,0.0037924433,9.8259211,-0.40615299,0.78275299,0.73595101,-0.025970001,-0.67653501,0.00095199997,-0.44316595,-1.4785135,0.40774454
2536659919136,1.0173484,0,,0.0043330939,-0.0055876891,0.0037924433,9.8259211,-0.40615299,0.78275299,0.73595101,-0.025970001,-0.67653501,0.00095199997,-0.44316595,-1.4785135,0.40774454
2536661918112,1.0193474,0,,-0.0028627413,-0.0081694849,0.0016555844,9.9378033,-0.41775098,0.76444203,0.73594099,-0.025975,-0.67654598,0.00096099998,-0.4434865,-1.4785322,0.40807175
2536663937888,1.0213672,0,,-0.0028627413,-0.0081694849,0.0016555844,9.9378033,-0.41775098,0.76444203,0.73594099,-0.025975,-0.67654598,0.00096099998,-0.4434865,-1.4785322,0.40807175
2536665992288,1.0234216,0,,-0.00025871015,-0.0066477146,-0.00056574846,9.7079048,-0.41479298,0.73267001,0.73592502,-0.025978001,-0.67656302,0.00095900003,-0.44371276,-1.4785781,0.40829056
2536668028000,1.0254573,0,,-0.00025871015,-0.0066477146,-0.00056574846,9.7079048,-0.41479298,0.73267001,0.73592502,-0.025978001,-0.67656302,0.00095900003,-0.44371276,-1.4785781,0.40829056
2536669942816,1.0273721,0,,-0.00025871015,-0.0066477146,-0.00056574846,9.7079048,-0.41479298,0.73267001,0.73592502,-0.025978001,-0.67656302,0.00095900003,-0.44371276,-1.4785781,0.40829056
2536671921152,1.0293504,0,,0.0062841978,-0.0048740587,-0.00303045,9.8678808,-0.49390998,0.76348197,0.73591399,-0.025970001,-0.67657602,0.00096099998,-0.4437834,-1.4786073,0.40837558
2536673916928,1.0313462,0,,0.0062841978,-0.0048740587,-0.00303045,9.8678808,-0.49390998,0.76348197,0.73591399,-0.025970001,-0.67657602,0.00096099998,-0.4437834,-1.4786073,0.40837558
2536675917184,1.0333465,0,,0.00071493925,-0.0059353237,-0.008543736,9.7583122,-0.361036,0.78076601,0.73590302,-0.025957,-0.676588,0.00096199999,-0.44374412,-1.4786447,0.40835517
2536677925056,1.0353543,0,,0.00071493925,-0.0059353237,-0.008543736,9.7583122,-0.361036,0.78076601,0.73590302,-0.025957,-0.676588,0.00096199999,-0.44374412,-1.4786447,0.40835517
2536679917504,1.0373468,0,,0.00071493925,-0.0059353237,-0.008543736,9.7583122,-0.361036,0.78076601,0.73590302,-0.025957,-0.676588,0.00096199999,-0.44374412,-1.4786447,0.40835517
2536681915008,1.0393443,0,,-0.0035470851,-0.0074461854,-0.0077191027,9.715004,-0.41196799,0.803945,0.735892,-0.025940999,-0.67659998,0.00094100001,-0.44338819,-1.4786965,0.40799322
2536683951488,1.0413808,0,,-0.0035470851,-0.0074461854,-0.0077191027,9.715004,-0.41196799,0.803945,0.735892,-0.025940999,-0.67659998,0.00094100001,-0.44338819,-1.4786965,0.40799322
2536685930112,1.0433594,0,,-0.0097794635,-0.01160925,-0.0014650294,9.676692,-0.26223499,0.79668498,0.73587602,-0.025948999,-0.67661798,0.00092199998,-0.44344951,-1.4787471,0.40801632
2536688095392,1.0455247,0,,-0.0097794635,-0.01160925,-0.0014650294,9.676692,-0.26223499,0.79668498,0.73587602,-0.025948999,-0.67661798,0.00092199998,-0.44344951,-1.4787471,0.40801632
2536689928416,1.0473577,0,,-0.0097794635,-0.01160925,-0.0014650294,9.676692,-0.26223499,0.79668498,0.73587602,-0.025948999,-0.67661798,0.00092199998,-0.44344951,-1.4787471,0.40801632
2536691919520,1.0493488,0,,-0.012270659,-0.009555294,-0.0019407887,9.8120232,-0.29146701,0.89029801,0.73585802,-0.025962001,-0.67663699,0.000894,-0.443512,-1.4788029,0.40802035
2536693915712,1.051345,0,,-0.012270659,-0.009555294,-0.0019407887,9.8120232,-0.29146701,0.89029801,0.73585802,-0.025962001,-0.67663699,0.000894,-0.443512,-1.4788029,0.40802035
2536695916544,1.0533458,0,,0.0013437988,-0.0049515863,-0.0018043737,9.8255177,-0.50526798,0.79778302,0.73584801,-0.025965,-0.67664701,0.00087400002,-0.44341306,-1.478838,0.40789082
2536697987136,1.0554164,0,,0.0013437988,-0.0049515863,-0.0018043737,9.8255177,-0.50526798,0.79778302,0.73584801,-0.025965,-0.67664701,0.00087400002,-0.44341306,-1.478838,0.40789082
2536699932544,1.0573618,0,,0.0013437988,-0.0049515863,-0.0018043737,9.8255177,-0.50526798,0.79778302,0.73584801,-0.025965,-0.67664701,0.00087400002,-0.44341306,-1.478838,0.40789082
2536701929536,1.0593588,0,,0.0041918096,-0.0017365676,-0.00024816837,9.8155994,-0.43618199,0.84823,0.735843,-0.025963999,-0.67665303,0.00088100001,-0.44356216,-1.4788516,0.40805037
2536703910848,1.0613401,0,,0.0041918096,-0.0017365676,-0.00024816837,9.8155994,-0.43618199,0.84823,0.735843,-0.025963999,-0.67665303,0.00088100001,-0.44356216,-1.4788516,0.40805037
2536705932928,1.0633622,0,,0.0072005301,-0.0054845228,-0.0050755746,9.8468122,-0.47751299,0.84473801,0.73584002,-0.025948999,-0.67665601,0.000887,-0.4434592,-1.478862,0.40797754
2536708080448,1.0655097,0,,0.0072005301,-0.0054845228,-0.0050755746,9.8468122,-0.47751299,0.84473801,0.73584002,-0.025948999,-0.67665601,0.000887,-0.4434592,-1.478862,0.40797754
2536709899744,1.067329,0,,0.0072005301,-0.0054845228,-0.0050755746,9.8468122,-0.47751299,0.84473801,0.73584002,-0.025948999,-0.67665601,0.000887,-0.4434592,-1.478862,0.40797754
2536711902048,1.0693313,0,,-0.0030256503,-0.007929572,-0.011313277,9.8540678,-0.51843899,0.84137899,0.73583001,-0.025937,-0.67666698,0.00087799999,-0.44330137,-1.4789009,0.40782317
2536713911520,1.0713408,0,,-0.0030256503,-0.007929572,-0.011313277,9.8540678,-0.51843899,0.84137899,0.73583001,-0.025937,-0.67666698,0.00087799999,-0.44330137,-1.4789009,0.40782317
2536715910912,1.0733402,0,,0.00096881483,-0.0058749178,-0.013922404,9.8232508,-0.48822501,0.87731999,0.73582,-0.025921,-0.67667902,0.00085700001,-0.44292397,-1.4789511,0.40743825
2536717926176,1.0753555,0,,0.00096881483,-0.0058749178,-0.013922404,9.8232508,-0.48822501,0.87731999,0.73582,-0.025921,-0.67667902,0.00085700001,-0.44292397,-1.4789511,0.40743825
2536719909920,1.0773392,0,,0.00096881483,-0.0058749178,-0.013922404,9.8232508,-0.48822501,0.87731999,0.73582,-0.025921,-0.67667902,0.00085700001,-0.44292397,-1.4789511,0.40743825
2536721904224,1.0793335,0,,-0.0012772495,-0.0068137481,-0.010610782,9.7914381,-0.51282001,0.82601601,0.73581398,-0.025906,-0.676687,0.00083500001,-0.44249913,-1.4789913,0.40700438
2536723906016,1.0813353,0,,-0.0012772495,-0.0068137481,-0.010610782,9.7914381,-0.51282001,0.82601601,0.73581398,-0.025906,-0.676687,0.00083500001,-0.44249913,-1.4789913,0.40700438
2536725901856,1.0833311,0,,-0.00017756979,-0.0041544072,-0.009332118,9.7650166,-0.353971,0.893695,0.73580599,-0.025896,-0.676696,0.00082000002,-0.44225978,-1.4790277,0.40675848
2536727934304,1.0853636,0,,-0.00017756979,-0.0041544072,-0.009332118,9.7650166,-0.353971,0.893695,0.73580599,-0.025896,-0.676696,0.00082000002,-0.44225978,-1.4790277,0.40675848
2536729917312,1.0873466,0,,-0.00017756979,-0.0041544072,-0.009332118,9.7650166,-0.353971,0.893695,0.73580599,-0.025896,-0.676696,0.00082000002,-0.44225978,-1.4790277,0.40675848
2536732016224,1.0894455,0,,-0.0026400548,-0.0082640292,-0.012824313,9.886363,-0.38126498,0.87269497,0.73580199,-0.02588,-0.67670101,0.00079600001,-0.44175081,-1.4790648,0.40623746
2536733939840,1.0913691,0,,-0.0026400548,-0.0082640292,-0.012824313,9.886363,-0.38126498,0.87269497,0.73580199,-0.02588,-0.67670101,0.00079600001,-0.44175081,-1.4790648,0.40623746
2536735936576,1.0933659,0,,-0.0064030023,-0.0089396638,-0.014622875,9.8461599,-0.46408799,0.79337597,0.735789,-0.025862999,-0.67671597,0.00076000002,-0.44120117,-1.4791293,0.40565995
2536737921216,1.0953505,0,,-0.0064030023,-0.0089396638,-0.014622875,9.8461599,-0.46408799,0.79337597,0.735789,-0.025862999,-0.67671597,0.00076000002,-0.44120117,-1.4791293,0.40565995
2536739918816,1.0973481,0,,-0.0064030023,-0.0089396638,-0.014622875,9.8461599,-0.46408799,0.79337597,0.735789,-0.025862999,-0.67671597,0.00076000002,-0.44120117,-1.4791293,0.40565995
2536741916896,1.0993462,0,,-0.0062414369,-0.0097663735,-0.014728153,9.7743635,-0.44655901,0.80311102,0.73577201,-0.025853001,-0.67673397,0.00072399998,-0.44079524,-1.4792029,0.4052189
2536743967168,1.1013964,0,,-0.0062414369,-0.0097663735,-0.014728153,9.7743635,-0.44655901,0.80311102,0.73577201,-0.025853001,-0.67673397,0.00072399998,-0.44079524,-1.4792029,0.4052189
2536745946752,1.103376,0,,-3.1974432e-05,-0.0080552181,-0.011433548,9.8797464,-0.275181,0.75979698,0.73575699,-0.025839999,-0.67675102,0.000695,-0.44042,-1.4792675,0.40482116
2536747949056,1.1053783,0,,-3.1974432e-05,-0.0080552181,-0.011433548,9.8797464,-0.275181,0.75979698,0.73575699,-0.025839999,-0.67675102,0.000695,-0.44042,-1.4792675,0.40482116
2536749905792,1.1073351,0,,-3.1974432e-05,-0.0080552181,-0.011433548,9.8797464,-0.275181,0.75979698,0.73575699,-0.025839999,-0.67675102,0.000695,-0.44042,-1.4792675,0.40482116
2536751907584,1.1093369,0,,0.0032597864,-0.0024021315,-0.0070400299,9.6844425,-0.265789,0.81349498,0.73574698,-0.025813,-0.676763,0.00067600003,-0.43989742,-1.4793229,0.40431
2536753923008,1.1113523,0,,0.0032597864,-0.0024021315,-0.0070400299,9.6844425,-0.265789,0.81349498,0.73574698,-0.025813,-0.676763,0.00067600003,-0.43989742,-1.4793229,0.40431
2536755908096,1.1133374,0,,-0.001154291,-0.0023451641,-0.0084041619,9.7358074,-0.363455,0.75328398,0.73574501,-0.025793999,-0.67676598,0.000658,-0.4394053,-1.4793522,0.40381884
2536757901824,1.1153311,0,,-0.001154291,-0.0023451641,-0.0084041619,9.7358074,-0.363455,0.75328398,0.73574501,-0.025793999,-0.67676598,0.000658,-0.4394053,-1.4793522,0.40381884
2536759898176,1.1173275,0,,-0.001154291,-0.0023451641,-0.0084041619,9.7358074,-0.363455,0.75328398,0.73574501,-0.025793999,-0.67676598,0.000658,-0.4394053,-1.4793522,0.40381884
2536761896256,1.1193255,0,,-0.0040856064,-0.005055137,-0.0084496453,9.5865412,-0.376672,0.72527897,0.73573798,-0.025784999,-0.67677402,0.00063600001,-0.43908236,-1.4793888,0.40347779
2536763926304,1.1213556,0,,-0.0040856064,-0.005055137,-0.0084496453,9.5865412,-0.376672,0.72527897,0.73573798,-0.025784999,-0.67677402,0.00063600001,-0.43908236,-1.4793888,0.40347779
2536766036192,1.1234655,0,,-0.00075920078,-0.0069827829,-0.010935204,9.675231,-0.37632,0.81110698,0.73572397,-0.025772,-0.67679,0.00061300001,-0.43877357,-1.4794475,0.40315465
2536768082528,1.1255118,0,,-0.00075920078,-0.0069827829,-0.010935204,9.675231,-0.37632,0.81110698,0.73572397,-0.025772,-0.67679,0.00061300001,-0.43877357,-1.4794475,0.40315465
2536769904032,1.1273333,0,,-0.00075920078,-0.0069827829,-0.010935204,9.675231,-0.37632,0.81110698,0.73572397,-0.025772,-0.67679,0.00061300001,-0.43877357,-1.4794475,0.40315465
2536771924384,1.1293537,0,,0.0016012698,-0.0040453591,-0.00090032809,9.6309738,-0.313676,0.74973798,0.735717,-0.025762999,-0.67679799,0.000604,-0.43859667,-1.4794771,0.40297732
2536773919616,1.1313489,0,,0.0016012698,-0.0040453591,-0.00090032809,9.6309738,-0.313676,0.74973798,0.735717,-0.025762999,-0.67679799,0.000604,-0.43859667,-1.4794771,0.40297732
2536775917824,1.1333471,0,,-0.0026104191,-0.0078849438,-0.01009111,9.8148108,-0.37673801,0.78000599,0.73570698,-0.02575,-0.67680901,0.000589,-0.43835192,-1.4795207,0.40272984
2536777930432,1.1353597,0,,-0.0026104191,-0.0078849438,-0.01009111,9.8148108,-0.37673801,0.78000599,0.73570698,-0.02575,-0.67680901,0.000589,-0.43835192,-1.4795207,0.40272984
2536779953920,1.1373832,0,,-0.0026104191,-0.0078849438,-0.01009111,9.8148108,-0.37673801,0.78000599,0.73570698,-0.02575,-0.67680901,0.000589,-0.43835192,-1.4795207,0.40272984
2536781932480,1.1393618,0,,-0.0011288092,-0.0046713214,-0.011275158,9.926959,-0.38811299,0.76486999,0.735695,-0.025736,-0.67682201,0.000566,-0.43798001,-1.4795752,0.40234572
2536783922304,1.1413516,0,,-0.0011288092,-0.0046713214,-0.011275158,9.926959,-0.38811299,0.76486999,0.735695,-0.025736,-0.67682201,0.000566,-0.43798001,-1.4795752,0.40234572
2536785915584,1.1433449,0,,-0.0020676393,-0.0087276585,-0.012801781,9.8886662,-0.44645199,0.75208098,0.73568302,-0.025714999,-0.67683601,0.000543,-0.43752554,-1.4796319,0.40188699
2536787949984,1.1453793,0,,-0.0020676393,-0.0087276585,-0.012801781,9.8886662,-0.44645199,0.75208098,0.73568302,-0.025714999,-0.67683601,0.000543,-0.43752554,-1.4796319,0.40188699
2536789921088,1.1473504,0,,-0.0020676393,-0.0087276585,-0.012801781,9.8886662,-0.44645199,0.75208098,0.73568302,-0.025714999,-0.67683601,0.000543,-0.43752554,-1.4796319,0.40188699
2536791942112,1.1493714,0,,-0.00044830526,-0.0067900637,-0.010972204,9.9355927,-0.34130999,0.85246801,0.73566699,-0.025703,-0.67685503,0.00051500002,-0.43719668,-1.4797021,0.40153642
2536793919872,1.1513492,0,,-0.00044830526,-0.0067900637,-0.010972204,9.9355927,-0.34130999,0.85246801,0.73566699,-0.025703,-0.67685503,0.00051500002,-0.43719668,-1.4797021,0.40153642
2536795952288,1.1533816,0,,0.0019056552,-0.0042625303,-0.013377006,9.8666697,-0.40941,0.78859502,0.73566002,-0.025679,-0.67686301,0.00049200002,-0.43661764,-1.4797474,0.40095924
2536797983872,1.1554132,0,,0.0019056552,-0.0042625303,-0.013377006,9.8666697,-0.40941,0.78859502,0.73566002,-0.025679,-0.67686301,0.00049200002,-0.43661764,-1.4797474,0.40095924
2536799940256,1.1573695,0,,0.0019056552,-0.0042625303,-0.013377006,9.8666697,-0.40941,0.78859502,0.73566002,-0.025679,-0.67686301,0.00049200002,-0.43661764,-1.4797474,0.40095924
2536801912384,1.1593417,0,,-0.0076272112,-0.0090676307,-0.012292493,9.8808546,-0.35790399,0.83056897,0.73565,-0.025660999,-0.676875,0.000463,-0.43610731,-1.4798037,0.40043323
2536803917408,1.1613467,0,,-0.0076272112,-0.0090676307,-0.012292493,9.8808546,-0.35790399,0.83056897,0.73565,-0.025660999,-0.676875,0.000463,-0.43610731,-1.4798037,0.40043323
2536805908128,1.1633374,0,,-0.0056870505,-0.01286203,-0.01045131,9.681715,-0.42172799,0.849307,0.73563099,-0.025655,-0.67689598,0.000428,-0.43579289,-1.4798792,0.4000781
2536807950944,1.1653802,0,,-0.0056870505,-0.01286203,-0.01045131,9.681715,-0.42172799,0.849307,0.73563099,-0.025655,-0.67689598,0.000428,-0.43579289,-1.4798792,0.4000781
2536809914304,1.1673436,0,,-0.0056870505,-0.01286203,-0.01045131,9.681715,-0.42172799,0.849307,0.73563099,-0.025655,-0.67689598,0.000428,-0.43579289,-1.4798792,0.4000781
2536811905280,1.1693346,0,,-0.0026261621,-0.01150432,-0.0079234109,9.8302221,-0.36228201,0.82677299,0.735614,-0.025649,-0.67691499,0.00040600001,-0.43562528,-1.4799415,0.39988825
2536813927360,1.1713566,0,,-0.0026261621,-0.01150432,-0.0079234109,9.8302221,-0.36228201,0.82677299,0.735614,-0.025649,-0.67691499,0.00040600001,-0.43562528,-1.4799415,0.39988825
2536815896224,1.1733255,0,,-0.0043647894,-0.0098794538,-0.0084081062,9.5570526,-0.51320201,0.80347097,0.735596,-0.025641,-0.676934,0.00038099999,-0.43539987,-1.4800098,0.39963838
2536817894336,1.1753236,0,,-0.0043647894,-0.0098794538,-0.0084081062,9.5570526,-0.51320201,0.80347097,0.735596,-0.025641,-0.676934,0.00038099999,-0.43539987,-1.4800098,0.39963838
2536819971104,1.1774004,0,,-0.0043647894,-0.0098794538,-0.0084081062,9.5570526,-0.51320201,0.80347097,0.735596,-0.025641,-0.676934,0.00038099999,-0.43539987,-1.4800098,0.39963838
2536821907424,1.1793367,0,,-0.0023066447,-0.010874553,-0.0069626771,9.7479143,-0.408142,0.82243299,0.73558098,-0.025645001,-0.67694998,0.00036599999,-0.43545307,-1.4800546,0.39966448
2536823905600,1.1813349,0,,-0.0023066447,-0.010874553,-0.0069626771,9.7479143,-0.408142,0.82243299,0.73558098,-0.025645001,-0.67694998,0.00036599999,-0.43545307,-1.4800546,0.39966448
2536825899968,1.1833292,0,,0.00068174304,-0.010501262,-0.017551137,9.6553679,-0.38116699,0.77659398,0.73556203,-0.025627,-0.67697102,0.00034299999,-0.43512783,-1.4801302,0.39933185
2536828072832,1.1855021,0,,0.00068174304,-0.010501262,-0.017551137,9.6553679,-0.38116699,0.77659398,0.73556203,-0.025627,-0.67697102,0.00034299999,-0.43512783,-1.4801302,0.39933185
2536829935072,1.1873644,0,,0.00068174304,-0.010501262,-0.017551137,9.6553679,-0.38116699,0.77659398,0.73556203,-0.025627,-0.67697102,0.00034299999,-0.43512783,-1.4801302,0.39933185
2536831966208,1.1893955,0,,0.0025105164,-0.0024462885,-0.017792758,9.8243427,-0.385948,0.82210201,0.73555398,-0.025593,-0.67698199,0.00031199999,-0.43432302,-1.4801908,0.39853234
2536833919456,1.1913487,0,,0.0025105164,-0.0024462885,-0.017792758,9.8243427,-0.385948,0.82210201,0.73555398,-0.025593,-0.67698199,0.00031199999,-0.43432302,-1.4801908,0.39853234
2536835908544,1.1933378,0,,0.0036078049,-0.0050603031,-0.015306782,9.6677713,-0.469248,0.82471597,0.73554999,-0.025558,-0.67698699,0.00028499999,-0.43349824,-1.4802389,0.39771861
2536837904704,1.195334,0,,0.0036078049,-0.0050603031,-0.015306782,9.6677713,-0.469248,0.82471597,0.73554999,-0.025558,-0.67698699,0.00028499999,-0.43349824,-1.4802389,0.39771861
2536839921152,1.1973504,0,,0.0036078049,-0.0050603031,-0.015306782,9.6677713,-0.469248,0.82471597,0.73554999,-0.025558,-0.67698699,0.00028499999,-0.43349824,-1.4802389,0.39771861
2536841910464,1.1993397,0,,0.0028588319,-0.002480584,-0.011340957,9.8745422,-0.35409901,0.82389098,0.73554498,-0.025536999,-0.67699301,0.000271,-0.43305746,-1.4802745,0.39728708
2536843961856,1.2013911,0,,0.0028588319,-0.002480584,-0.011340957,9.8745422,-0.35409901,0.82389098,0.73554498,-0.025536999,-0.67699301,0.000271,-0.43305746,-1.4802745,0.39728708
2536845944224,1.2033735,0,,0.0021734586,-0.0068545709,-0.011995945,9.8161459,-0.43341199,0.83148903,0.73553902,-0.025509,-0.677001,0.000249,-0.43242372,-1.4803188,0.3966616
2536848044864,1.2054741,0,,0.0021734586,-0.0068545709,-0.011995945,9.8161459,-0.43341199,0.83148903,0.73553902,-0.025509,-0.677001,0.000249,-0.43242372,-1.4803188,0.3966616
2536849903168,1.2073324,0,,0.0021734586,-0.0068545709,-0.011995945,9.8161459,-0.43341199,0.83148903,0.73553902,-0.025509,-0.677001,0.000249,-0.43242372,-1.4803188,0.3966616
2536851910048,1.2093393,0,,-0.0026085517,-0.010072906,-0.0050881758,9.8478003,-0.34972301,0.809412,0.73552603,-0.025497999,-0.67701501,0.000235,-0.4322399,-1.480369,0.39647418
2536853901248,1.2113305,0,,-0.0026085517,-0.010072906,-0.0050881758,9.8478003,-0.34972301,0.809412,0.73552603,-0.025497999,-0.67701501,0.000235,-0.4322399,-1.480369,0.39647418
2536855907808,1.2133371,0,,-0.0038623612,-0.0043093226,-0.00821797,9.806633,-0.35421801,0.79997897,0.735515,-0.025491999,-0.67702699,0.000216,-0.43201922,-1.4804138,0.39623493
2536857903008,1.2153323,0,,-0.0038623612,-0.0043093226,-0.00821797,9.806633,-0.35421801,0.79997897,0.735515,-0.025491999,-0.67702699,0.000216,-0.43201922,-1.4804138,0.39623493
2536859950400,1.2173797,0,,-0.0038623612,-0.0043093226,-0.00821797,9.806633,-0.35421801,0.79997897,0.735515,-0.025491999,-0.67702699,0.000216,-0.43201922,-1.4804138,0.39623493
2536861912608,1.2193419,0,,-0.00082965972,0.0013865768,-0.0019605283,9.8056955,-0.34076801,0.77011901,0.73551297,-0.025488,-0.67703003,0.000201,-0.43180804,-1.4804303,0.39600856
2536863907424,1.2213367,0,,-0.00082965972,0.0013865768,-0.0019605283,9.8056955,-0.34076801,0.77011901,0.73551297,-0.025488,-0.67703003,0.000201,-0.43180804,-1.4804303,0.39600856
2536865947584,1.2233769,0,,0.0017900621,-0.002231735,-0.0069779835,9.8325386,-0.35762599,0.80645299,0.73551202,-0.025475999,-0.67703098,0.000191,-0.43150167,-1.4804461,0.39570459
2536867938560,1.2253678,0,,0.0017900621,-0.002231735,-0.0069779835,9.8325386,-0.35762599,0.80645299,0.73551202,-0.025475999,-0.67703098,0.000191,-0.43150167,-1.4804461,0.39570459
2536869893184,1.2273225,0,,0.0017900621,-0.002231735,-0.0069779835,9.8325386,-0.35762599,0.80645299,0.73551202,-0.025475999,-0.67703098,0.000191,-0.43150167,-1.4804461,0.39570459
2536871894720,1.229324,0,,0.00095129167,-0.0058615135,-0.0033731804,9.6172552,-0.434017,0.73699099,0.73550498,-0.025462,-0.67703998,0.000182,-0.43126162,-1.4804792,0.39547107
2536873891168,1.2313204,0,,0.00095129167,-0.0058615135,-0.0033731804,9.6172552,-0.434017,0.73699099,0.73550498,-0.025462,-0.67703998,0.000182,-0.43126162,-1.4804792,0.39547107
2536875892384,1.2333217,0,,-0.0049962494,-0.0061648169,-0.0061774705,9.769289,-0.27873099,0.77742398,0.73549402,-0.025466001,-0.67705202,0.00017099999,-0.43131598,-1.4805136,0.39550539
2536877902816,1.2353321,0,,-0.0049962494,-0.0061648169,-0.0061774705,9.769289,-0.27873099,0.77742398,0.73549402,-0.025466001,-0.67705202,0.00017099999,-0.43131598,-1.4805136,0.39550539
2536879900800,1.2373301,0,,-0.0049962494,-0.0061648169,-0.0061774705,9.769289,-0.27873099,0.77742398,0.73549402,-0.025466001,-0.67705202,0.00017099999,-0.43131598,-1.4805136,0.39550539
2536881889888,1.2393192,0,,0.0036186609,-0.0021919415,-0.011461961,9.6479225,-0.33054399,0.75728703,0.73548698,-0.025443999,-0.67706001,0.000149,-0.43078205,-1.4805566,0.39497089
2536883907136,1.2413364,0,,0.0036186609,-0.0021919415,-0.011461961,9.6479225,-0.33054399,0.75728703,0.73548698,-0.025443999,-0.67706001,0.000149,-0.43078205,-1.4805566,0.39497089
2536885906240,1.2433355,0,,0.0011414803,-0.0022622784,-0.013091435,9.753356,-0.386967,0.735847,0.735484,-0.025417,-0.67706501,0.000128,-0.43012948,-1.4805963,0.39432717
2536887939040,1.2453683,0,,0.0011414803,-0.0022622784,-0.013091435,9.753356,-0.386967,0.735847,0.735484,-0.025417,-0.67706501,0.000128,-0.43012948,-1.4805963,0.39432717
2536889909920,1.2473392,0,,0.0011414803,-0.0022622784,-0.013091435,9.753356,-0.386967,0.735847,0.735484,-0.025417,-0.67706501,0.000128,-0.43012948,-1.4805963,0.39432717
2536891905696,1.249335,0,,-0.00067462214,-0.00021980676,-0.010099278,9.8052006,-0.36245799,0.80725497,0.735479,-0.025396001,-0.67707002,0.000107,-0.42959092,-1.4806321,0.39378948
2536893907360,1.2513366,0,,-0.00067462214,-0.00021980676,-0.010099278,9.8052006,-0.36245799,0.80725497,0.735479,-0.025396001,-0.67707002,0.000107,-0.42959092,-1.4806321,0.39378948
2536895910272,1.2533396,0,,-0.00067462214,-0.00021980676,-0.010099278,9.8052006,-0.36245799,0.80725497,0.735479,-0.025396001,-0.67707002,0.000107,-0.42959092,-1.4806321,0.39378948
2536897977120,1.2554064,0,,-0.0070634694,0.00034386478,-0.011133211,9.8305588,-0.39528999,0.77942199,0.73548001,-0.025385,-0.67707002,8.0999998e-05,-0.42906098,-1.4806518,0.39323681
2536899944096,1.2573734,0,,-0.0070634694,0.00034386478,-0.011133211,9.8305588,-0.39528999,0.77942199,0.73548001,-0.025385,-0.67707002,8.0999998e-05,-0.42906098,-1.4806518,0.39323681
2536901918560,1.2593478,0,,-0.0056011979,-0.0017943206,-0.009831056,9.8826361,-0.32217199,0.81212699,0.735479,-0.025381001,-0.67707098,5.1999999e-05,-0.42860305,-1.480673,0.39274406
2536903909120,1.2613384,0,,-0.0056011979,-0.0017943206,-0.009831056,9.8826361,-0.32217199,0.81212699,0.735479,-0.025381001,-0.67707098,5.1999999e-05,-0.42860305,-1.480673,0.39274406
2536905902912,1.2633322,0,,-0.0056011979,-0.0017943206,-0.009831056,9.8826361,-0.32217199,0.81212699,0.735479,-0.025381001,-0.67707098,5.1999999e-05,-0.42860305,-1.480673,0.39274406
2536907940576,1.2653699,0,,-0.0056011979,-0.0017943206,-0.009831056,9.8826361,-0.32217199,0.81212699,0.735479,-0.025381001,-0.67707098,5.1999999e-05,-0.42860305,-1.480673,0.39274406
2536909927456,1.2673567,0,,-0.0056011979,-0.0017943206,-0.009831056,9.8826361,-0.32217199,0.81212699,0.735479,-0.025381001,-0.67707098,5.1999999e-05,-0.42860305,-1.480673,0.39274406
2536911917760,1.269347,0,,-0.0021523052,0.0034970814,-0.0059258642,9.8069305,-0.387732,0.81273502,0.735484,-0.025358999,-0.67706597,1.5e-05,-0.42771908,-1.4806935,0.39183898
2536913906592,1.2713359,0,,-0.0021523052,0.0034970814,-0.0059258642,9.8069305,-0.387732,0.81273502,0.735484,-0.025358999,-0.67706597,1.5e-05,-0.42771908,-1.4806935,0.39183898
2536915909600,1.2733389,0,,-0.0062780366,-0.0034288912,-0.010039849,9.8076639,-0.41352099,0.83791298,0.73548597,-0.025355,-0.67706501,-8e-06,-0.42732074,-1.4807054,0.39141287
2536917900896,1.2753302,0,,-0.0062780366,-0.0034288912,-0.010039849,9.8076639,-0.41352099,0.83791298,0.73548597,-0.025355,-0.67706501,-8e-06,-0.42732074,-1.4807054,0.39141287
2536919904256,1.2773335,0,,-0.0062780366,-0.0034288912,-0.010039849,9.8076639,-0.41352099,0.83791298,0.73548597,-0.025355,-0.67706501,-8e-06,-0.42732074,-1.4807054,0.39141287
2536921894752,1.279324,0,,-0.004405141,-0.0027767142,-0.00786023,9.7639265,-0.477622,0.80925798,0.73548299,-0.025353,-0.677068,-3.3e-05,-0.42696791,-1.4807274,0.39102755
2536923894304,1.2813236,0,,-0.004405141,-0.0027767142,-0.00786023,9.7639265,-0.477622,0.80925798,0.73548299,-0.025353,-0.677068,-3.3e-05,-0.42696791,-1.4807274,0.39102755
2536925905504,1.2833348,0,,-0.0040302795,-0.00043748422,-0.0079194666,9.7313108,-0.411282,0.82670999,0.73548001,-0.025353,-0.67707098,-5.1999999e-05,-0.42675089,-1.4807466,0.39078197
2536928080448,1.2855097,0,,-0.0040302795,-0.00043748422,-0.0079194666,9.7313108,-0.411282,0.82670999,0.73548001,-0.025353,-0.67707098,-5.1999999e-05,-0.42675089,-1.4807466,0.39078197
2536929890944,1.2873202,0,,-0.0040302795,-0.00043748422,-0.0079194666,9.7313108,-0.411282,0.82670999,0.73548001,-0.025353,-0.67707098,-5.1999999e-05,-0.42675089,-1.4807466,0.39078197
2536931962144,1.2893914,0,,-0.00030260519,-0.0021231057,-0.013788537,9.7108469,-0.38389501,0.80638099,0.73548102,-0.025339,-0.67707098,-7.6999997e-05,-0.42619033,-1.4807671,0.39020706
2536933895488,1.2913248,0,,-0.00030260519,-0.0021231057,-0.013788537,9.7108469,-0.38389501,0.80638099,0.73548102,-0.025339,-0.67707098,-7.6999997e-05,-0.42619033,-1.4807671,0.39020706
2536935916448,1.2933457,0,,-0.0032809747,-0.0038215381,-0.0093074567,9.7393761,-0.36245099,0.79866201,0.73547798,-0.025326001,-0.67707497,-0.000103,-0.42569445,-1.4807989,0.38969251
2536937884544,1.2953138,0,,-0.0032809747,-0.0038215381,-0.0093074567,9.7393761,-0.36245099,0.79866201,0.73547798,-0.025326001,-0.67707497,-0.000103,-0.42569445,-1.4807989,0.38969251
2536939897920,1.2973272,0,,-0.0032809747,-0.0038215381,-0.0093074567,9.7393761,-0.36245099,0.79866201,0.73547798,-0.025326001,-0.67707497,-0.000103,-0.42569445,-1.4807989,0.38969251
2536941937440,1.2993667,0,,0.00098982858,7.9063413e-06,-0.002151223,9.574501,-0.338595,0.79469597,0.73547298,-0.025318,-0.67707998,-0.000116,-0.42544511,-1.4808221,0.38943571
2536943979232,1.3014085,0,,0.00098982858,7.9063413e-06,-0.002151223,9.574501,-0.338595,0.79469597,0.73547298,-0.025318,-0.67707998,-0.000116,-0.42544511,-1.4808221,0.38943571
2536945943264,1.3033725,0,,0.00011246902,0.0025459292,-0.0058274625,9.7980986,-0.29825801,0.809861,0.73547798,-0.02531,-0.67707497,-0.00012300001,-0.42516654,-1.4808196,0.38915944
2536947958496,1.3053878,0,,0.00011246902,0.0025459292,-0.0058274625,9.7980986,-0.29825801,0.809861,0.73547798,-0.02531,-0.67707497,-0.00012300001,-0.42516654,-1.4808196,0.38915944
2536949919904,1.3073492,0,,0.00011246902,0.0025459292,-0.0058274625,9.7980986,-0.29825801,0.809861,0.73547798,-0.02531,-0.67707497,-0.00012300001,-0.42516654,-1.4808196,0.38915944
2536951918368,1.3093476,0,,-0.0023989201,0.0034262384,-0.005902843,9.8161268,-0.28092799,0.82192898,0.73548597,-0.025299,-0.67706698,-0.000139,-0.42468301,-1.4808114,0.38866809
2536953911680,1.311341,0,,-0.0023989201,0.0034262384,-0.005902843,9.8161268,-0.28092799,0.82192898,0.73548597,-0.025299,-0.67706698,-0.000139,-0.42468301,-1.4808114,0.38866809
2536955925760,1.313355,0,,-0.0059284473,-0.0018662456,-0.0034692958,9.7617636,-0.36874399,0.79765302,0.735488,-0.025296001,-0.67706501,-0.000162,-0.42429349,-1.4808221,0.3882513
2536957919072,1.3153484,0,,-0.0059284473,-0.0018662456,-0.0034692958,9.7617636,-0.36874399,0.79765302,0.735488,-0.025296001,-0.67706501,-0.000162,-0.42429349,-1.4808221,0.3882513
2536959919040,1.3173483,0,,-0.0059284473,-0.0018662456,-0.0034692958,9.7617636,-0.36874399,0.79765302,0.735488,-0.025296001,-0.67706501,-0.000162,-0.42429349,-1.4808221,0.3882513
2536961915680,1.319345,0,,-0.00062948793,0.0011155446,0.0017011724,9.8060989,-0.37990099,0.83016098,0.735488,-0.025299,-0.677064,-0.000168,-0.42425241,-1.4808217,0.38819591
2536963939488,1.3213688,0,,-0.00062948793,0.0011155446,0.0017011724,9.8060989,-0.37990099,0.83016098,0.735488,-0.025299,-0.677064,-0.000168,-0.42425241,-1.4808217,0.38819591
2536965973760,1.323403,0,,-0.0029805163,-0.0020303066,0.00038505454,9.7755146,-0.425006,0.755723,0.73549002,-0.025304001,-0.67706198,-0.00017099999,-0.4242651,-1.4808162,0.38819764
2536967967008,1.3253963,0,,-0.0029805163,-0.0020303066,0.00038505454,9.7755146,-0.425006,0.755723,0.73549002,-0.025304001,-0.67706198,-0.00017099999,-0.4242651,-1.4808162,0.38819764
2536969917408,1.3273467,0,,-0.0029805163,-0.0020303066,0.00038505454,9.7755146,-0.425006,0.755723,0.73549002,-0.025304001,-0.67706198,-0.00017099999,-0.4242651,-1.4808162,0.38819764
2536971914944,1.3293442,0,,-0.0093386459,-0.00017238617,-0.0043086768,9.8256569,-0.399434,0.76098001,0.73548698,-0.025312999,-0.67706501,-0.000184,-0.42425434,-1.4808281,0.38815623
2536973926592,1.3313559,0,,-0.0093386459,-0.00017238617,-0.0043086768,9.8256569,-0.399434,0.76098001,0.73548698,-0.025312999,-0.67706501,-0.000184,-0.42425434,-1.4808281,0.38815623
2536975909280,1.3333386,0,,-0.0044355624,-0.0010168812,-0.0073678026,9.7985487,-0.35730699,0.80551898,0.735484,-0.025317,-0.677068,-0.000207,-0.42403244,-1.4808461,0.38789597
2536977911776,1.3353411,0,,-0.0044355624,-0.0010168812,-0.0073678026,9.7985487,-0.35730699,0.80551898,0.735484,-0.025317,-0.677068,-0.000207,-0.42403244,-1.4808461,0.38789597
2536979936896,1.3373662,0,,-0.0044355624,-0.0010168812,-0.0073678026,9.7985487,-0.35730699,0.80551898,0.735484,-0.025317,-0.677068,-0.000207,-0.42403244,-1.4808461,0.38789597
2536981903008,1.3393323,0,,-0.00057201423,0.0017116095,-0.0041666768,9.8691311,-0.32512301,0.78437501,0.73548502,-0.025311999,-0.67706698,-0.000223,-0.4237323,-1.4808522,0.38758059
2536983901024,1.3413303,0,,-0.00057201423,0.0017116095,-0.0041666768,9.8691311,-0.32512301,0.78437501,0.73548502,-0.025311999,-0.67706698,-0.000223,-0.4237323,-1.4808522,0.38758059
2536985897856,1.3433271,0,,0.0031234237,0.0013380741,-0.0080994448,9.7817841,-0.36635101,0.77792603,0.735488,-0.025296001,-0.677064,-0.00023599999,-0.42327057,-1.480862,0.38712339
2536988082688,1.345512,0,,0.0031234237,0.0013380741,-0.0080994448,9.7817841,-0.36635101,0.77792603,0.735488,-0.025296001,-0.677064,-0.00023599999,-0.42327057,-1.480862,0.38712339
2536989911968,1.3473412,0,,0.0031234237,0.0013380741,-0.0080994448,9.7817841,-0.36635101,0.77792603,0.735488,-0.025296001,-0.677064,-0.00023599999,-0.42327057,-1.480862,0.38712339
2536991897376,1.3493267,0,,0.0031781049,0.00049914671,-0.0044913083,9.6890841,-0.35195601,0.76309198,0.735488,-0.025280001,-0.677064,-0.000244,-0.42291098,-1.4808772,0.38677511
2536993895008,1.3513243,0,,0.0031781049,0.00049914671,-0.0044913083,9.6890841,-0.35195601,0.76309198,0.735488,-0.025280001,-0.677064,-0.000244,-0.42291098,-1.4808772,0.38677511
2536995890432,1.3533197,0,,0.0042659862,0.00082723369,-0.0012272806,9.783927,-0.298013,0.77409601,0.73549002,-0.025268,-0.67706299,-0.000243,-0.42273668,-1.4808786,0.38661968
2536997943104,1.3553724,0,,0.0042659862,0.00082723369,-0.0012272806,9.783927,-0.298013,0.77409601,0.73549002,-0.025268,-0.67706299,-0.000243,-0.42273668,-1.4808786,0.38661968
2536999918528,1.3573478,0,,0.0042659862,0.00082723369,-0.0012272806,9.783927,-0.298013,0.77409601,0.73549002,-0.025268,-0.67706299,-0.000243,-0.42273668,-1.4808786,0.38661968
2537001921920,1.3593512,0,,0.0022210012,-0.0030720414,-0.00073958324,9.7450056,-0.31943199,0.786156,0.73548901,-0.025258999,-0.67706501,-0.000243,-0.42260914,-1.4808891,0.38650454
2537003953056,1.3613823,0,,0.0022210012,-0.0030720414,-0.00073958324,9.7450056,-0.31943199,0.786156,0.73548901,-0.025258999,-0.67706501,-0.000243,-0.42260914,-1.4808891,0.38650454
2537005916768,1.363346,0,,-6.8416907e-05,-0.0026712962,-0.0028998472,9.726512,-0.35501,0.78909302,0.73548299,-0.025250999,-0.67707199,-0.000249,-0.42250009,-1.4809118,0.38639791
2537007951296,1.3653806,0,,-6.8416907e-05,-0.0026712962,-0.0028998472,9.726512,-0.35501,0.78909302,0.73548299,-0.025250999,-0.67707199,-0.000249,-0.42250009,-1.4809118,0.38639791
2537009912800,1.3673421,0,,-6.8416907e-05,-0.0026712962,-0.0028998472,9.726512,-0.35501,0.78909302,0.73548299,-0.025250999,-0.67707199,-0.000249,-0.42250009,-1.4809118,0.38639791
2537011919008,1.3693483,0,,-0.003691127,0.00047479936,-0.0013991083,9.8058987,-0.32153499,0.78801799,0.73548198,-0.025250999,-0.677073,-0.00025499999,-0.42242592,-1.4809164,0.38631495
2537013918880,1.3713482,0,,-0.003691127,0.00047479936,-0.0013991083,9.8058987,-0.32153499,0.78801799,0.73548198,-0.025250999,-0.677073,-0.00025499999,-0.42242592,-1.4809164,0.38631495
2537015916704,1.373346,0,,-0.00086133743,0.0014371914,0.0012655732,9.7800703,-0.36582199,0.78137898,0.735484,-0.025253,-0.67707098,-0.00026599999,-0.42227006,-1.4809177,0.38614185
2537017914144,1.3753434,0,,-0.00086133743,0.0014371914,0.0012655732,9.7800703,-0.36582199,0.78137898,0.735484,-0.025253,-0.67707098,-0.00026599999,-0.42227006,-1.4809177,0.38614185
2537019987008,1.3774163,0,,-0.00086133743,0.0014371914,0.0012655732,9.7800703,-0.36582199,0.78137898,0.735484,-0.025253,-0.67707098,-0.00026599999,-0.42227006,-1.4809177,0.38614185
2537021922848,1.3793521,0,,0.0027321559,0.0072075464,0.0016193165,9.7037163,-0.362165,0.77535403,0.73549098,-0.025253,-0.67706198,-0.000264,-0.42220591,-1.4808959,0.38607846
2537023923808,1.3813531,0,,0.0027321559,0.0072075464,0.0016193165,9.7037163,-0.362165,0.77535403,0.73549098,-0.025253,-0.67706198,-0.000264,-0.42220591,-1.4808959,0.38607846
2537025897600,1.3833269,0,,0.00062477551,0.0032521766,0.0040561452,9.8041887,-0.33523199,0.81177002,0.73550099,-0.025254,-0.67705202,-0.00025499999,-0.42221949,-1.480864,0.38610553
2537028080864,1.3855101,0,,0.00062477551,0.0032521766,0.0040561452,9.8041887,-0.33523199,0.81177002,0.73550099,-0.025254,-0.67705202,-0.00025499999,-0.42221949,-1.480864,0.38610553
2537029940096,1.3873694,0,,0.00062477551,0.0032521766,0.0040561452,9.8041887,-0.33523199,0.81177002,0.73550099,-0.025254,-0.67705202,-0.00025499999,-0.42221949,-1.480864,0.38610553
2537031901120,1.3893304,0,,0.0013607459,-0.00067381929,0.0023860048,9.7699776,-0.38443899,0.81928802,0.73550397,-0.025253,-0.67704898,-0.00025300001,-0.42219762,-1.4808547,0.38608645
2537033886592,1.3913159,0,,0.0013607459,-0.00067381929,0.0023860048,9.7699776,-0.38443899,0.81928802,0.73550397,-0.025253,-0.67704898,-0.00025300001,-0.42219762,-1.4808547,0.38608645
2537035922112,1.3933514,0,,0.0021067869,0.0047160541,0.0024544741,9.7634983,-0.436194,0.83149302,0.73550898,-0.025255,-0.67704397,-0.000243,-0.42229998,-1.4808349,0.386201
2537037885312,1.3953146,0,,0.0021067869,0.0047160541,0.0024544741,9.7634983,-0.436194,0.83149302,0.73550898,-0.025255,-0.67704397,-0.000243,-0.42229998,-1.4808349,0.386201
2537039883840,1.3973131,0,,0.0021067869,0.0047160541,0.0024544741,9.7634983,-0.436194,0.83149302,0.73550898,-0.025255,-0.67704397,-0.000243,-0.42229998,-1.4808349,0.386201
2537041880224,1.3993095,0,,-0.0050781052,-0.003528567,0.0050720314,9.8811207,-0.40240601,0.82923597,0.735515,-0.025268,-0.67703599,-0.00023799999,-0.42247649,-1.4808069,0.38636655
2537043900864,1.4013301,0,,-0.0050781052,-0.003528567,0.0050720314,9.8811207,-0.40240601,0.82923597,0.735515,-0.025268,-0.67703599,-0.00023799999,-0.42247649,-1.4808069,0.38636655
2537045878080,1.4033074,0,,0.0037990406,-0.0065958786,0.0035617457,9.8274708,-0.396211,0.84342802,0.73550701,-0.025278,-0.67704499,-0.00023200001,-0.42281101,-1.4808217,0.38669555
2537048190656,1.4056199,0,,0.0037990406,-0.0065958786,0.0035617457,9.8274708,-0.396211,0.84342802,0.73550701,-0.025278,-0.67704499,-0.00023200001,-0.42281101,-1.4808217,0.38669555
2537049874496,1.4073038,0,,0.0037990406,-0.0065958786,0.0035617457,9.8274708,-0.396211,0.84342802,0.73550701,-0.025278,-0.67704499,-0.00023200001,-0.42281101,-1.4808217,0.38669555
2537051911392,1.4093407,0,,0.011541705,-0.0014258293,-0.0013536948,9.8131657,-0.41517699,0.81418401,0.73550397,-0.025266999,-0.67704803,-0.000216,-0.42289547,-1.4808256,0.38681709
2537053875456,1.4113047,0,,0.011541705,-0.0014258293,-0.0013536948,9.8131657,-0.41517699,0.81418401,0.73550397,-0.025266999,-0.67704803,-0.000216,-0.42289547,-1.4808256,0.38681709
2537055872960,1.4133022,0,,-0.0017278585,0.00036391859,0.0015818094,9.7857761,-0.412442,0.78259999,0.73550498,-0.025257001,-0.67704701,-0.000207,-0.42286757,-1.4808249,0.38681706
2537057884800,1.4153141,0,,-0.0017278585,0.00036391859,0.0015818094,9.7857761,-0.412442,0.78259999,0.73550498,-0.025257001,-0.67704701,-0.000207,-0.42286757,-1.4808249,0.38681706
2537059931648,1.4173609,0,,-0.0017278585,0.00036391859,0.0015818094,9.7857761,-0.412442,0.78259999,0.73550498,-0.025257001,-0.67704701,-0.000207,-0.42286757,-1.4808249,0.38681706
2537061923584,1.4193529,0,,0.0010761351,0.0022184007,0.0017654529,9.7090731,-0.40789601,0.80973101,0.73550802,-0.025261,-0.67704397,-0.000205,-0.42291597,-1.4808134,0.386862
2537063918368,1.4213476,0,,0.0010761351,0.0022184007,0.0017654529,9.7090731,-0.40789601,0.80973101,0.73550802,-0.025261,-0.67704397,-0.000205,-0.42291597,-1.4808134,0.386862
2537065925920,1.4233552,0,,0.0010761351,0.0022184007,0.0017654529,9.7090731,-0.40789601,0.80973101,0.73550802,-0.025261,-0.67704397,-0.000205,-0.42291597,-1.4808134,0.386862
2537067991104,1.4254204,0,,0.00039482839,-0.0014803359,-0.0012024271,9.8316412,-0.32996401,0.82146901,0.73550999,-0.025264001,-0.67704201,-0.000203,-0.42297599,-1.4808051,0.38692072
2537069917888,1.4273472,0,,0.00039482839,-0.0014803359,-0.0012024271,9.8316412,-0.32996401,0.82146901,0.73550999,-0.025264001,-0.67704201,-0.000203,-0.42297599,-1.4808051,0.38692072
2537071935040,1.4293643,0,,0.00064243826,0.00084784607,0.0034664683,9.6411047,-0.35487399,0.80605298,0.73550898,-0.025262,-0.67704302,-0.000207,-0.42290875,-1.4808128,0.38685055
2537073913344,1.4313426,0,,0.00064243826,0.00084784607,0.0034664683,9.6411047,-0.35487399,0.80605298,0.73550898,-0.025262,-0.67704302,-0.000207,-0.42290875,-1.4808128,0.38685055
2537075925280,1.4333546,0,,0.0026525165,-0.0075018091,-0.00069605473,9.895956,-0.38446501,0.78561997,0.73550498,-0.025264001,-0.67704701,-0.000201,-0.42306025,-1.4808142,0.38700787
2537077910016,1.4353393,0,,0.0026525165,-0.0075018091,-0.00069605473,9.895956,-0.38446501,0.78561997,0.73550498,-0.025264001,-0.67704701,-0.000201,-0.42306025,-1.4808142,0.38700787
2537079904288,1.4373336,0,,0.0026525165,-0.0075018091,-0.00069605473,9.895956,-0.38446501,0.78561997,0.73550498,-0.025264001,-0.67704701,-0.000201,-0.42306025,-1.4808142,0.38700787
2537081901120,1.4393304,0,,0.0050374914,-0.0014598981,-0.0015201469,9.7452955,-0.36596301,0.81156898,0.73549598,-0.025254,-0.67705703,-0.000197,-0.42306847,-1.4808447,0.38703527
2537083899200,1.4413285,0,,0.0050374914,-0.0014598981,-0.0015201469,9.7452955,-0.36596301,0.81156898,0.73549598,-0.025254,-0.67705703,-0.000197,-0.42306847,-1.4808447,0.38703527
2537085906720,1.443336,0,,0.0023115141,0.0017178578,-0.0020297307,9.8517246,-0.35577899,0.76428801,0.73549902,-0.025247,-0.67705399,-0.00019599999,-0.42295432,-1.4808401,0.3869334
2537087918656,1.4453479,0,,0.0023115141,0.0017178578,-0.0020297307,9.8517246,-0.35577899,0.76428801,0.73549902,-0.025247,-0.67705399,-0.00019599999,-0.42295432,-1.4808401,0.3869334
2537089894784,1.4473241,0,,0.0023115141,0.0017178578,-0.0020297307,9.8517246,-0.35577899,0.76428801,0.73549902,-0.025247,-0.67705399,-0.00019599999,-0.42295432,-1.4808401,0.3869334
2537091897280,1.4493266,0,,0.0060400088,0.0042440473,-0.0026610685,9.8054829,-0.34243399,0.765944,0.73550397,-0.025234001,-0.67704898,-0.000195,-0.42269663,-1.4808314,0.38669545
2537093893024,1.4513223,0,,0.0060400088,0.0042440473,-0.0026610685,9.8054829,-0.34243399,0.765944,0.73550397,-0.025234001,-0.67704898,-0.000195,-0.42269663,-1.4808314,0.38669545
2537095896064,1.4533253,0,,0.0043694494,-0.0026531971,-0.002703515,9.8413296,-0.34237,0.79280198,0.73550498,-0.025218999,-0.67704898,-0.000191,-0.42252076,-1.4808379,0.38654485
2537097900192,1.4553295,0,,0.0043694494,-0.0026531971,-0.002703515,9.8413296,-0.34237,0.79280198,0.73550498,-0.025218999,-0.67704898,-0.000191,-0.42252076,-1.4808379,0.38654485
2537099950624,1.4573799,0,,0.0043694494,-0.0026531971,-0.002703515,9.8413296,-0.34237,0.79280198,0.73550498,-0.025218999,-0.67704898,-0.000191,-0.42252076,-1.4808379,0.38654485
2537101956064,1.4593853,0,,0.0043506869,-0.0048825761,-0.00020364502,9.7832413,-0.36387199,0.78937298,0.73549902,-0.025208,-0.67705601,-0.000191,-0.4224416,-1.4808599,0.3864824
2537103915680,1.461345,0,,0.0043506869,-0.0048825761,-0.00020364502,9.7832413,-0.36387199,0.78937298,0.73549902,-0.025208,-0.67705601,-0.000191,-0.4224416,-1.4808599,0.3864824
2537105904352,1.4633336,0,,0.0030801221,-0.005753216,0.00069619439,9.8495026,-0.29100499,0.82718098,0.73549199,-0.025203001,-0.677064,-0.000184,-0.42255005,-1.4808792,0.38660793
2537108081984,1.4655113,0,,0.0030801221,-0.005753216,0.00069619439,9.8495026,-0.29100499,0.82718098,0.73549199,-0.025203001,-0.677064,-0.000184,-0.42255005,-1.4808792,0.38660793
2537109881216,1.4673105,0,,0.0030801221,-0.005753216,0.00069619439,9.8495026,-0.29100499,0.82718098,0.73549199,-0.025203001,-0.677064,-0.000184,-0.42255005,-1.4808792,0.38660793
2537111876672,1.469306,0,,0.0068898968,-0.0020940984,0.001549992,9.8017712,-0.35822201,0.817904,0.73548698,-0.025189999,-0.67706901,-0.00017499999,-0.42254003,-1.4808959,0.3866292
2537113898208,1.4713275,0,,0.0068898968,-0.0020940984,0.001549992,9.8017712,-0.35822201,0.817904,0.73548698,-0.025189999,-0.67706901,-0.00017499999,-0.42254003,-1.4808959,0.3866292
2537115901216,1.4733305,0,,0.0042877679,0.0020485104,-0.0040235248,9.773366,-0.389413,0.78024203,0.73549002,-0.025176,-0.67706597,-0.000168,-0.42239173,-1.4808912,0.38651003
2537117908032,1.4753373,0,,0.0042877679,0.0020485104,-0.0040235248,9.773366,-0.389413,0.78024203,0.73549002,-0.025176,-0.67706597,-0.000168,-0.42239173,-1.4808912,0.38651003
2537119905216,1.4773345,0,,0.0042877679,0.0020485104,-0.0040235248,9.773366,-0.389413,0.78024203,0.73549002,-0.025176,-0.67706597,-0.000168,-0.42239173,-1.4808912,0.38651003
2537121900096,1.4793294,0,,-0.0058014572,-0.00045542623,0.00012786282,9.6330662,-0.424631,0.75348401,0.73549098,-0.025177,-0.67706597,-0.00017499999,-0.42230105,-1.4808945,0.38640833
2537123898656,1.4813279,0,,-0.0058014572,-0.00045542623,0.00012786282,9.6330662,-0.424631,0.75348401,0.73549098,-0.025177,-0.67706597,-0.00017499999,-0.42230105,-1.4808945,0.38640833
2537125898336,1.4833276,0,,-0.0017489595,-0.0015200247,-0.00033731978,9.7748098,-0.381686,0.783584,0.73548901,-0.025188999,-0.67706698,-0.00017699999,-0.42247402,-1.4808925,0.38656233
2537127925216,1.4853545,0,,-0.0017489595,-0.0015200247,-0.00033731978,9.7748098,-0.381686,0.783584,0.73548901,-0.025188999,-0.67706698,-0.00017699999,-0.42247402,-1.4808925,0.38656233
2537129898432,1.4873277,0,,-0.0017489595,-0.0015200247,-0.00033731978,9.7748098,-0.381686,0.783584,0.73548901,-0.025188999,-0.67706698,-0.00017699999,-0.42247402,-1.4808925,0.38656233
2537131933568,1.4893628,0,,-0.00087507319,-0.0017005092,0.0022536912,9.7115192,-0.37520099,0.83424401,0.73548597,-0.025191,-0.67707098,-0.000181,-0.42249906,-1.4809039,0.38657834
2537133943904,1.4913732,0,,-0.00087507319,-0.0017005092,0.0022536912,9.7115192,-0.37520099,0.83424401,0.73548597,-0.025191,-0.67707098,-0.000181,-0.42249906,-1.4809039,0.38657834
2537135910592,1.4933399,0,,-0.0031330579,-0.00098139866,0.00043622761,9.7665958,-0.34616199,0.80710697,0.73548597,-0.025198,-0.67707002,-0.000179,-0.42261723,-1.480898,0.38668936
2537137903776,1.4953331,0,,-0.0031330579,-0.00098139866,0.00043622761,9.7665958,-0.34616199,0.80710697,0.73548597,-0.025198,-0.67707002,-0.000179,-0.42261723,-1.480898,0.38668936
2537139900288,1.4973296,0,,-0.0031330579,-0.00098139866,0.00043622761,9.7665958,-0.34616199,0.80710697,0.73548597,-0.025198,-0.67707002,-0.000179,-0.42261723,-1.480898,0.38668936
2537141903680,1.499333,0,,-0.0042712045,-0.0029405657,0.001296064,9.772213,-0.36189699,0.82723397,0.73548299,-0.025209,-0.677073,-0.000187,-0.42271584,-1.4809019,0.3867603
2537143909472,1.5013388,0,,-0.0042712045,-0.0029405657,0.001296064,9.772213,-0.36189699,0.82723397,0.73548299,-0.025209,-0.677073,-0.000187,-0.42271584,-1.4809019,0.3867603
2537145890720,1.50332,0,,0.005056236,-0.00023478169,-0.0022595731,9.9019356,-0.35897201,0.84275699,0.73548299,-0.025207,-0.677073,-0.00019000001,-0.42264856,-1.4809039,0.38669186
2537147940736,1.50537,0,,0.005056236,-0.00023478169,-0.0022595731,9.9019356,-0.35897201,0.84275699,0.73548299,-0.025207,-0.677073,-0.00019000001,-0.42264856,-1.4809039,0.38669186
2537149907968,1.5073372,0,,0.005056236,-0.00023478169,-0.0022595731,9.9019356,-0.35897201,0.84275699,0.73548299,-0.025207,-0.677073,-0.00019000001,-0.42264856,-1.4809039,0.38669186
2537151893344,1.5093226,0,,-0.0012269839,-0.0088714213,0.0068893382,9.878376,-0.37339401,0.80384398,0.73547697,-0.025207,-0.67707902,-0.000183,-0.42280259,-1.4809144,0.38685524
2537153886112,1.5113154,0,,-0.0012269839,-0.0088714213,0.0068893382,9.878376,-0.37339401,0.80384398,0.73547697,-0.025207,-0.67707902,-0.000183,-0.42280259,-1.4809144,0.38685524
2537155886880,1.5133162,0,,0.0013727712,-0.0032484417,0.0019234924,9.7643108,-0.41331699,0.789464,0.735466,-0.025211999,-0.677091,-0.000174,-0.42315409,-1.4809355,0.38721374
2537157883328,1.5153126,0,,0.0013727712,-0.0032484417,0.0019234924,9.7643108,-0.41331699,0.789464,0.735466,-0.025211999,-0.677091,-0.000174,-0.42315409,-1.4809355,0.38721374
2537159881440,1.5173107,0,,0.0013727712,-0.0032484417,0.0019234924,9.7643108,-0.41331699,0.789464,0.735466,-0.025211999,-0.677091,-0.000174,-0.42315409,-1.4809355,0.38721374
2537161880160,1.5193094,0,,-0.00081533054,0.00090643672,0.001337376,9.7766991,-0.41712299,0.78691798,0.73546499,-0.025217,-0.67709297,-0.00017,-0.42331062,-1.480939,0.38736773
2537163895232,1.5213245,0,,-0.00081533054,0.00090643672,0.001337376,9.7766991,-0.41712299,0.78691798,0.73546499,-0.025217,-0.67709297,-0.00017,-0.42331062,-1.480939,0.38736773
2537165965536,1.5233948,0,,0.003320262,0.0014693926,0.0023021067,9.7797203,-0.361498,0.79717797,0.73546898,-0.025222,-0.67708802,-0.000164,-0.42340606,-1.4809192,0.38746577
2537168062816,1.5254921,0,,0.003320262,0.0014693926,0.0023021067,9.7797203,-0.361498,0.79717797,0.73546898,-0.025222,-0.67708802,-0.000164,-0.42340606,-1.4809192,0.38746577
2537169899040,1.5273283,0,,0.003320262,0.0014693926,0.0023021067,9.7797203,-0.361498,0.79717797,0.73546898,-0.025222,-0.67708802,-0.000164,-0.42340606,-1.4809192,0.38746577
2537171855904,1.5292852,0,,0.0061968092,-0.0046202183,0.0016578184,9.7531385,-0.32519999,0.83196598,0.73546898,-0.025217,-0.67708802,-0.000155,-0.42346215,-1.480917,0.3875415
2537173898336,1.5313276,0,,0.0061968092,-0.0046202183,0.0016578184,9.7531385,-0.32519999,0.83196598,0.73546898,-0.025217,-0.67708802,-0.000155,-0.42346215,-1.480917,0.3875415
2537175899744,1.533329,0,,0.0041312292,-0.0047481333,-0.00083749622,9.7514811,-0.30693901,0.80480498,0.73546201,-0.025208,-0.67709601,-0.00014800001,-0.42350443,-1.4809385,0.38760645
2537177911872,1.5353412,0,,0.0041312292,-0.0047481333,-0.00083749622,9.7514811,-0.30693901,0.80480498,0.73546201,-0.025208,-0.67709601,-0.00014800001,-0.42350443,-1.4809385,0.38760645
2537179908832,1.5373381,0,,0.0041312292,-0.0047481333,-0.00083749622,9.7514811,-0.30693901,0.80480498,0.73546201,-0.025208,-0.67709601,-0.00014800001,-0.42350443,-1.4809385,0.38760645
2537181988448,1.5394177,0,,-0.0048832918,-0.004594073,0.0046029567,9.7106972,-0.396853,0.77586597,0.73545599,-0.025207,-0.67710197,-0.000147,-0.42358626,-1.480951,0.38769087
2537183912352,1.5413416,0,,-0.0048832918,-0.004594073,0.0046029567,9.7106972,-0.396853,0.77586597,0.73545599,-0.025207,-0.67710197,-0.000147,-0.42358626,-1.480951,0.38769087
2537185898560,1.5433278,0,,-0.0080371013,-0.003951251,0.0037145144,9.6988888,-0.43577999,0.74792099,0.73544902,-0.025231,-0.67711002,-0.00014999999,-0.42399322,-1.4809608,0.38805972
2537187929760,1.545359,0,,-0.0080371013,-0.003951251,0.0037145144,9.6988888,-0.43577999,0.74792099,0.73544902,-0.025231,-0.67711002,-0.00014999999,-0.42399322,-1.4809608,0.38805972
2537189895264,1.5473245,0,,-0.0080371013,-0.003951251,0.0037145144,9.6988888,-0.43577999,0.74792099,0.73544902,-0.025231,-0.67711002,-0.00014999999,-0.42399322,-1.4809608,0.38805972
2537191892736,1.549322,0,,0.00092973691,-0.0022796095,0.0070438171,9.8356771,-0.32825699,0.77608401,0.73544097,-0.025250999,-0.67711699,-0.000143,-0.42447562,-1.4809663,0.38852388
2537193889536,1.5513188,0,,0.00092973691,-0.0022796095,0.0070438171,9.8356771,-0.32825699,0.77608401,0.73544097,-0.025250999,-0.67711699,-0.000143,-0.42447562,-1.4809663,0.38852388
2537195914304,1.5533436,0,,0.01023208,-0.00011294026,-0.0043634105,9.8614693,-0.32556501,0.80839097,0.735439,-0.025239,-0.67711997,-0.00013299999,-0.42447492,-1.4809722,0.3885541
2537197961760,1.555391,0,,0.01023208,-0.00011294026,-0.0043634105,9.8614693,-0.32556501,0.80839097,0.735439,-0.025239,-0.67711997,-0.00013299999,-0.42447492,-1.4809722,0.3885541
2537199899520,1.5573288,0,,0.01023208,-0.00011294026,-0.0043634105,9.8614693,-0.32556501,0.80839097,0.735439,-0.025239,-0.67711997,-0.00013299999,-0.42447492,-1.4809722,0.3885541
2537201899168,1.5593284,0,,0.01023208,-0.00011294026,-0.0043634105,9.8614693,-0.32556501,0.80839097,0.735439,-0.025239,-0.67711997,-0.00013299999,-0.42447492,-1.4809722,0.3885541
2537203894688,1.561324,0,,0.0030447442,0.00090053752,-0.0018688811,9.8683968,-0.37062401,0.79964101,0.735443,-0.025216,-0.67711598,-0.00012899999,-0.42412565,-1.4809742,0.38824325
2537205895424,1.5633247,0,,-0.004489493,-0.0074918607,0.0010080498,9.8353958,-0.36319301,0.78929102,0.73543799,-0.025214,-0.677122,-0.000134,-0.42410631,-1.4809929,0.38821898
2537208071264,1.5655005,0,,-0.004489493,-0.0074918607,0.0010080498,9.8353958,-0.36319301,0.78929102,0.73543799,-0.025214,-0.677122,-0.000134,-0.42410631,-1.4809929,0.38821898
2537209889536,1.5673188,0,,-0.004489493,-0.0074918607,0.0010080498,9.8353958,-0.36319301,0.78929102,0.73543799,-0.025214,-0.677122,-0.000134,-0.42410631,-1.4809929,0.38821898
2537211891264,1.5693205,0,,-0.004489493,-0.0074918607,0.0010080498,9.8353958,-0.36319301,0.78929102,0.73543799,-0.025214,-0.677122,-0.000134,-0.42410631,-1.4809929,0.38821898
2537213930528,1.5713598,0,,-0.004489493,-0.0074918607,0.0010080498,9.8353958,-0.36319301,0.78929102,0.73543799,-0.025214,-0.677122,-0.000134,-0.42410631,-1.4809929,0.38821898
2537215890976,1.5733203,0,,-0.0018549185,-0.0033215187,-0.0010537076,9.7825518,-0.35523501,0.77407402,0.73540902,-0.025234001,-0.67715198,-0.000157,-0.42445911,-1.48107,0.38851159
2537217886848,1.5753161,0,,-0.0018549185,-0.0033215187,-0.0010537076,9.7825518,-0.35523501,0.77407402,0.73540902,-0.025234001,-0.67715198,-0.000157,-0.42445911,-1.48107,0.38851159
2537219889792,1.5773191,0,,-0.0018549185,-0.0033215187,-0.0010537076,9.7825518,-0.35523501,0.77407402,0.73540902,-0.025234001,-0.67715198,-0.000157,-0.42445911,-1.48107,0.38851159
2537221956992,1.5793863,0,,-0.0017086774,-0.0003664668,-0.00042366121,9.7983913,-0.417357,0.76969999,0.73540801,-0.025237,-0.677154,-0.000165,-0.42441623,-1.4810766,0.3884533
2537223921376,1.5813507,0,,-0.0017086774,-0.0003664668,-0.00042366121,9.7983913,-0.417357,0.76969999,0.73540801,-0.025237,-0.677154,-0.000165,-0.42441623,-1.4810766,0.3884533
2537225905216,1.5833345,0,,-0.0010078404,-0.0030967203,3.5377825e-05,9.762557,-0.37041,0.82364702,0.73540503,-0.025238,-0.67715698,-0.000165,-0.42445282,-1.4810851,0.38848862
2537228062272,1.5854916,0,,-0.0010078404,-0.0030967203,3.5377825e-05,9.762557,-0.37041,0.82364702,0.73540503,-0.025238,-0.67715698,-0.000165,-0.42445282,-1.4810851,0.38848862
2537229896192,1.5873255,0,,-0.0010078404,-0.0030967203,3.5377825e-05,9.762557,-0.37041,0.82364702,0.73540503,-0.025238,-0.67715698,-0.000165,-0.42445282,-1.4810851,0.38848862
2537231966880,1.5893962,0,,0.001465902,-0.0057611222,0.0044332758,9.7028847,-0.35022101,0.819601,0.73539901,-0.025242999,-0.677163,-0.000163,-0.42464703,-1.4810957,0.38867814
2537233917792,1.5913471,0,,0.001465902,-0.0057611222,0.0044332758,9.7028847,-0.35022101,0.819601,0.73539901,-0.025242999,-0.677163,-0.000163,-0.42464703,-1.4810957,0.38867814
2537235919968,1.5933492,0,,-0.0017255547,-0.00023584634,0.0036516128,9.6920319,-0.37588599,0.78439599,0.73539603,-0.025249001,-0.67716599,-0.000157,-0.4248445,-1.4810967,0.38887502
2537237906752,1.595336,0,,-0.0017255547,-0.00023584634,0.0036516128,9.6920319,-0.37588599,0.78439599,0.73539603,-0.025249001,-0.67716599,-0.000157,-0.4248445,-1.4810967,0.38887502
2537239905152,1.5973344,0,,-0.0017255547,-0.00023584634,0.0036516128,9.6920319,-0.37588599,0.78439599,0.73539603,-0.025249001,-0.67716599,-0.000157,-0.4248445,-1.4810967,0.38887502
2537241902752,1.599332,0,,-0.015183701,-0.0015343364,0.0099276768,9.6873779,-0.43949899,0.79235101,0.73539501,-0.025278,-0.67716599,-0.00016,-0.42525879,-1.4810826,0.38924376
2537243956672,1.601386,0,,-0.015183701,-0.0015343364,0.0099276768,9.6873779,-0.43949899,0.79235101,0.73539501,-0.025278,-0.67716599,-0.00016,-0.42525879,-1.4810826,0.38924376
2537245909664,1.6033389,0,,-0.026910604,-0.0016100662,0.008622642,9.7602797,-0.368909,0.82356799,0.73539197,-0.025336999,-0.677167,-0.00017699999,-0.42595264,-1.4810652,0.38983102
2537248095296,1.6055246,0,,-0.026910604,-0.0016100662,0.008622642,9.7602797,-0.368909,0.82356799,0.73539197,-0.025336999,-0.677167,-0.00017699999,-0.42595264,-1.4810652,0.38983102
2537249893504,1.6073228,0,,-0.026910604,-0.0016100662,0.008622642,9.7602797,-0.368909,0.82356799,0.73539197,-0.025336999,-0.677167,-0.00017699999,-0.42595264,-1.4810652,0.38983102
2537251891008,1.6093203,0,,-0.0093434104,-0.0019874065,-0.0044892485,9.8352537,-0.35814101,0.83091801,0.73538899,-0.025377,-0.67716902,-0.000204,-0.4262105,-1.4810659,0.38999504
2537253884224,1.6113135,0,,-0.0093434104,-0.0019874065,-0.0044892485,9.8352537,-0.35814101,0.83091801,0.73538899,-0.025377,-0.67716902,-0.000204,-0.4262105,-1.4810659,0.38999504
2537255895264,1.6133245,0,,-0.0070604676,-0.0044151419,0.003361574,9.8563013,-0.40098199,0.82107502,0.735385,-0.025384,-0.67717302,-0.00021899999,-0.42615917,-1.4810799,0.38991192
2537257899040,1.6153283,0,,-0.0070604676,-0.0044151419,0.003361574,9.8563013,-0.40098199,0.82107502,0.735385,-0.025384,-0.67717302,-0.00021899999,-0.42615917,-1.4810799,0.38991192
2537259888672,1.617318,0,,-0.0070604676,-0.0044151419,0.003361574,9.8563013,-0.40098199,0.82107502,0.735385,-0.025384,-0.67717302,-0.00021899999,-0.42615917,-1.4810799,0.38991192
2537261986944,1.6194162,0,,-0.0080515531,3.5063663e-05,0.0064668464,9.8251839,-0.422252,0.80323702,0.73537898,-0.025415,-0.67717803,-0.000225,-0.4266154,-1.4810786,0.39031625
2537263895584,1.6213249,0,,-0.0080515531,3.5063663e-05,0.0064668464,9.8251839,-0.422252,0.80323702,0.73537898,-0.025415,-0.67717803,-0.000225,-0.4266154,-1.4810786,0.39031625
2537265940096,1.6233694,0,,-6.5100781e-05,0.00036400588,0.0057999732,9.791913,-0.361541,0.79255402,0.73538399,-0.025431,-0.67717302,-0.000222,-0.42685219,-1.4810546,0.39053363
