t_recv_ns,t_s,t_stamp_ns,frame_id,angular_velocity.x,angular_velocity.y,angular_velocity.z,linear_acceleration.x,linear_acceleration.y,linear_acceleration.z,quaternion.w,quaternion.x,quaternion.y,quaternion.z,rpy.x,rpy.y,rpy.z
3620177878400,0,0,,0.003145956,-0.0010392563,-0.0022037923,9.8198328,-0.28923801,1.01911,0.73942602,-0.081132002,-0.66560197,-0.060325,-0.37506776,-1.4622734,0.17438497
3620179665568,0.001787168,0,,0.003145956,-0.0010392563,-0.0022037923,9.8198328,-0.28923801,1.01911,0.73942602,-0.081132002,-0.66560197,-0.060325,-0.37506776,-1.4622734,0.17438497
3620184279968,0.006401568,0,,0.0070681471,0.0025446725,-0.0040627251,9.8319254,-0.48577201,0.930035,0.73943102,-0.081110999,-0.66559899,-0.06033,-0.37468902,-1.4622728,0.17402826
3620184320832,0.006442432,0,,0.0070681471,0.0025446725,-0.0040627251,9.8319254,-0.48577201,0.930035,0.73943102,-0.081110999,-0.66559899,-0.06033,-0.37468902,-1.4622728,0.17402826
3620185764192,0.007885792,0,,0.0070681471,0.0025446725,-0.0040627251,9.8319254,-0.48577201,0.930035,0.73943102,-0.081110999,-0.66559899,-0.06033,-0.37468902,-1.4622728,0.17402826
3620187776352,0.009897952,0,,0.0046572888,-0.0025090853,0.00014634585,9.828249,-0.37276,0.95527297,0.73943001,-0.081101,-0.66560197,-0.060320001,-0.37469701,-1.462278,0.17406411
3620189939456,0.012061056,0,,0.0046572888,-0.0025090853,0.00014634585,9.828249,-0.37276,0.95527297,0.73943001,-0.081101,-0.66560197,-0.060320001,-0.37469701,-1.462278,0.17406411
3620191802176,0.013923776,0,,-0.0031217832,-0.0062708284,-0.0004955688,9.79531,-0.276297,1.035465,0.73942101,-0.081101,-0.66561198,-0.060320001,-0.37475633,-1.462303,0.17412448
3620193779936,0.015901536,0,,-0.0031217832,-0.0062708284,-0.0004955688,9.79531,-0.276297,1.035465,0.73942101,-0.081101,-0.66561198,-0.060320001,-0.37475633,-1.462303,0.17412448
3620195842368,0.017963968,0,,0.0032310407,0.00052164401,-1.9198622e-06,9.7474022,-0.46028399,0.98311698,0.73941898,-0.081098996,-0.66561401,-0.06033,-0.37463583,-1.4623134,0.17399322
3620197779584,0.019901184,0,,0.0032310407,0.00052164401,-1.9198622e-06,9.7474022,-0.46028399,0.98311698,0.73941898,-0.081098996,-0.66561401,-0.06033,-0.37463583,-1.4623134,0.17399322
3620199753088,0.021874688,0,,0.0032310407,0.00052164401,-1.9198622e-06,9.7474022,-0.46028399,0.98311698,0.73941898,-0.081098996,-0.66561401,-0.06033,-0.37463583,-1.4623134,0.17399322
3620201782112,0.023903712,0,,0.0047731613,0.0017241759,-0.00089184577,9.7425385,-0.437125,0.97326201,0.73942399,-0.081092,-0.66561002,-0.060323,-0.37459185,-1.4623007,0.17396755
3620203786016,0.025907616,0,,0.0047731613,0.0017241759,-0.00089184577,9.7425385,-0.437125,0.97326201,0.73942399,-0.081092,-0.66561002,-0.060323,-0.37459185,-1.4623007,0.17396755
3620205773856,0.027895456,0,,0.0030450935,0.0027194849,-0.00018451622,9.6541758,-0.410281,1.004784,0.739429,-0.081087001,-0.66560501,-0.060316,-0.37457384,-1.4622877,0.17396657
3620207655872,0.029777472,0,,0.0030450935,0.0027194849,-0.00018451622,9.6541758,-0.410281,1.004784,0.739429,-0.081087001,-0.66560501,-0.060316,-0.37457384,-1.4622877,0.17396657
3620209837664,0.031959264,0,,0.0030450935,0.0027194849,-0.00018451622,9.6541758,-0.410281,1.004784,0.739429,-0.081087001,-0.66560501,-0.060316,-0.37457384,-1.4622877,0.17396657
3620211745728,0.033867328,0,,0.0046917939,0.0025407805,0.0013462074,9.7516174,-0.42482001,1.011009,0.73943597,-0.081081003,-0.66559798,-0.060311001,-0.37450114,-1.4622673,0.17391059
3620213780256,0.035901856,0,,0.0046917939,0.0025407805,0.0013462074,9.7516174,-0.42482001,1.011009,0.73943597,-0.081081003,-0.66559798,-0.060311001,-0.37450114,-1.4622673,0.17391059
3620215812864,0.037934464,0,,-0.0013082988,0.00025577799,0.0009968448,9.697135,-0.42762601,1.020735,0.73944199,-0.081079997,-0.66559201,-0.060302999,-0.37453932,-1.4622496,0.17396103
3620217785856,0.039907456,0,,-0.0013082988,0.00025577799,0.0009968448,9.697135,-0.42762601,1.020735,0.73944199,-0.081079997,-0.66559201,-0.060302999,-0.37453932,-1.4622496,0.17396103
3620219749376,0.041870976,0,,-0.0013082988,0.00025577799,0.0009968448,9.697135,-0.42762601,1.020735,0.73944199,-0.081079997,-0.66559201,-0.060302999,-0.37453932,-1.4622496,0.17396103
3620221738752,0.043860352,0,,-0.0013082988,0.00025577799,0.0009968448,9.697135,-0.42762601,1.020735,0.73944199,-0.081079997,-0.66559201,-0.060302999,-0.37453932,-1.4622496,0.17396103
3620223743648,0.045865248,0,,-0.0013082988,0.00025577799,0.0009968448,9.697135,-0.42762601,1.020735,0.73944199,-0.081079997,-0.66559201,-0.060302999,-0.37453932,-1.4622496,0.17396103
3620225768672,0.047890272,0,,0.0053458215,-0.0019876508,0.0024513324,9.7179298,-0.38701701,0.95728701,0.73944497,-0.081078,-0.665591,-0.060291,-0.37464248,-1.4622407,0.17408482
3620227728928,0.049850528,0,,0.0053458215,-0.0019876508,0.0024513324,9.7179298,-0.38701701,0.95728701,0.73944497,-0.081078,-0.665591,-0.060291,-0.37464248,-1.4622407,0.17408482
3620229971424,0.052093024,0,,0.0053458215,-0.0019876508,0.0024513324,9.7179298,-0.38701701,0.95728701,0.73944497,-0.081078,-0.665591,-0.060291,-0.37464248,-1.4622407,0.17408482
3620231777344,0.053898944,0,,0.0053886693,0.0022359063,0.0025239904,9.8657665,-0.35221499,1.018985,0.73944598,-0.081073001,-0.66559201,-0.060279999,-0.37469954,-1.4622376,0.17416361
3620233802720,0.05592432,0,,0.0053886693,0.0022359063,0.0025239904,9.8657665,-0.35221499,1.018985,0.73944598,-0.081073001,-0.66559201,-0.060279999,-0.37469954,-1.4622376,0.17416361
3620235781952,0.057903552,0,,0.0054913992,-0.00078049378,0.0032033599,9.8964643,-0.465408,0.99407899,0.73945099,-0.081064999,-0.66558701,-0.060268998,-0.3747048,-1.4622215,0.17419662
3620237761984,0.059883584,0,,0.0054913992,-0.00078049378,0.0032033599,9.8964643,-0.465408,0.99407899,0.73945099,-0.081064999,-0.66558701,-0.060268998,-0.3747048,-1.4622215,0.17419662
3620239755712,0.061877312,0,,0.0054913992,-0.00078049378,0.0032033599,9.8964643,-0.465408,0.99407899,0.73945099,-0.081064999,-0.66558701,-0.060268998,-0.3747048,-1.4622215,0.17419662
3620241753568,0.063875168,0,,-0.00028674014,-0.0018159453,-0.0001706932,9.8836355,-0.40132999,0.972009,0.73944998,-0.081065997,-0.66558897,-0.060258999,-0.37483683,-1.4622227,0.17434043
3620243754144,0.065875744,0,,-0.00028674014,-0.0018159453,-0.0001706932,9.8836355,-0.40132999,0.972009,0.73944998,-0.081065997,-0.66558897,-0.060258999,-0.37483683,-1.4622227,0.17434043
3620245752768,0.067874368,0,,-0.0010134604,-0.0045890115,-0.0014172947,9.7319937,-0.326974,0.98651701,0.73944199,-0.081069,-0.66559702,-0.060263,-0.3748866,-1.4622431,0.17438039
3620247765312,0.069886912,0,,-0.0010134604,-0.0045890115,-0.0014172947,9.7319937,-0.326974,0.98651701,0.73944199,-0.081069,-0.66559702,-0.060263,-0.3748866,-1.4622431,0.17438039
3620249923744,0.072045344,0,,-0.0010134604,-0.0045890115,-0.0014172947,9.7319937,-0.326974,0.98651701,0.73944199,-0.081069,-0.66559702,-0.060263,-0.3748866,-1.4622431,0.17438039
3620251759328,0.073880928,0,,-0.00024771459,-0.0010155024,0.00078168063,9.7109938,-0.37952101,0.92824602,0.73943901,-0.081067003,-0.66560102,-0.06027,-0.37479881,-1.46226,0.17428748
3620253766144,0.075887744,0,,-0.00024771459,-0.0010155024,0.00078168063,9.7109938,-0.37952101,0.92824602,0.73943901,-0.081067003,-0.66560102,-0.06027,-0.37479881,-1.46226,0.17428748
3620255753152,0.077874752,0,,-0.00069685758,0.0021589025,0.0023931257,9.8190956,-0.38582799,0.943286,0.73943901,-0.081069,-0.6656,-0.060270999,-0.37481665,-1.4622568,0.17430063
3620257772672,0.079894272,0,,-0.00069685758,0.0021589025,0.0023931257,9.8190956,-0.38582799,0.943286,0.73943901,-0.081069,-0.6656,-0.060270999,-0.37481665,-1.4622568,0.17430063
3620259753984,0.081875584,0,,-0.00069685758,0.0021589025,0.0023931257,9.8190956,-0.38582799,0.943286,0.73943901,-0.081069,-0.6656,-0.060270999,-0.37481665,-1.4622568,0.17430063
3620261793824,0.083915424,0,,0.0013457012,0.00051726322,0.00067193433,9.77001,-0.24870899,1.017814,0.73944002,-0.081072003,-0.66559899,-0.06027,-0.37486649,-1.4622524,0.17434715
3620263776224,0.085897824,0,,0.0013457012,0.00051726322,0.00067193433,9.77001,-0.24870899,1.017814,0.73944002,-0.081072003,-0.66559899,-0.06027,-0.37486649,-1.4622524,0.17434715
3620265788096,0.087909696,0,,0.0047807362,0.00030412363,-0.0027305851,9.6305113,-0.337419,0.92582297,0.73944402,-0.081056997,-0.66559601,-0.060276002,-0.37457074,-1.4622501,0.17406348
3620267755072,0.089876672,0,,0.0047807362,0.00030412363,-0.0027305851,9.6305113,-0.337419,0.92582297,0.73944402,-0.081056997,-0.66559601,-0.060276002,-0.37457074,-1.4622501,0.17406348
3620269941440,0.09206304,0,,0.0047807362,0.00030412363,-0.0027305851,9.6305113,-0.337419,0.92582297,0.73944402,-0.081056997,-0.66559601,-0.060276002,-0.37457074,-1.4622501,0.17406348
3620271768320,0.09388992,0,,-0.0090042756,-0.0026829899,0.001599699,9.6792307,-0.34987199,0.92539299,0.739438,-0.08106,-0.66560102,-0.060286,-0.37452264,-1.4622665,0.1739983
3620273758464,0.095880064,0,,-0.0090042756,-0.0026829899,0.001599699,9.6792307,-0.34987199,0.92539299,0.739438,-0.08106,-0.66560102,-0.060286,-0.37452264,-1.4622665,0.1739983
3620275743968,0.097865568,0,,-0.0028581336,0.00021649065,0.0014322521,9.7662916,-0.285041,1.000126,0.739434,-0.081074998,-0.66560298,-0.060295999,-0.37461589,-1.4622754,0.17405524
3620277774016,0.099895616,0,,-0.0028581336,0.00021649065,0.0014322521,9.7662916,-0.285041,1.000126,0.739434,-0.081074998,-0.66560298,-0.060295999,-0.37461589,-1.4622754,0.17405524
3620279730816,0.10185242,0,,-0.0028581336,0.00021649065,0.0014322521,9.7662916,-0.285041,1.000126,0.739434,-0.081074998,-0.66560298,-0.060295999,-0.37461589,-1.4622754,0.17405524
3620281759456,0.10388106,0,,-0.0010090446,0.0025886199,0.0038472641,9.8424702,-0.43302599,1.002033,0.739438,-0.081078999,-0.66559702,-0.060300998,-0.37458176,-1.4622617,0.17400713
3620283727808,0.10584941,0,,-0.0010090446,0.0025886199,0.0038472641,9.8424702,-0.43302599,1.002033,0.739438,-0.081078999,-0.66559702,-0.060300998,-0.37458176,-1.4622617,0.17400713
3620285740544,0.10786214,0,,0.0034968369,0.0014615388,3.4365535e-05,9.8191614,-0.46990201,0.97294497,0.73944199,-0.081083,-0.66559303,-0.060298,-0.37464365,-1.462248,0.1740679
3620287766912,0.10988851,0,,0.0034968369,0.0014615388,3.4365535e-05,9.8191614,-0.46990201,0.97294497,0.73944199,-0.081083,-0.66559303,-0.060298,-0.37464365,-1.462248,0.1740679
3620289949504,0.1120711,0,,0.0034968369,0.0014615388,3.4365535e-05,9.8191614,-0.46990201,0.97294497,0.73944199,-0.081083,-0.66559303,-0.060298,-0.37464365,-1.462248,0.1740679
3620291791744,0.11391334,0,,0.0033273829,0.0037610799,-0.0024936566,9.7876806,-0.42938799,0.99189502,0.73944801,-0.081078,-0.66558701,-0.060291,-0.37461256,-1.4622303,0.17405354
3620293788384,0.11590998,0,,0.0033273829,0.0037610799,-0.0024936566,9.7876806,-0.42938799,0.99189502,0.73944801,-0.081078,-0.66558701,-0.060291,-0.37461256,-1.4622303,0.17405354
3620295853888,0.11797549,0,,0.0033273829,0.0037610799,-0.0024936566,9.7876806,-0.42938799,0.99189502,0.73944801,-0.081078,-0.66558701,-0.060291,-0.37461256,-1.4622303,0.17405354
3620297826048,0.11994765,0,,0.0033273829,0.0037610799,-0.0024936566,9.7876806,-0.42938799,0.99189502,0.73944801,-0.081078,-0.66558701,-0.060291,-0.37461256,-1.4622303,0.17405354
3620299773568,0.12189517,0,,0.0033273829,0.0037610799,-0.0024936566,9.7876806,-0.42938799,0.99189502,0.73944801,-0.081078,-0.66558701,-0.060291,-0.37461256,-1.4622303,0.17405354
3620301763264,0.12388486,0,,-0.0017329548,0.00049942596,0.00019748401,9.8553209,-0.499764,1.032362,0.739456,-0.081081003,-0.66557801,-0.060291,-0.37459694,-1.4622062,0.17403541
3620303757856,0.12587946,0,,-0.0017329548,0.00049942596,0.00019748401,9.8553209,-0.499764,1.032362,0.739456,-0.081081003,-0.66557801,-0.060291,-0.37459694,-1.4622062,0.17403541
3620305761536,0.12788314,0,,0.002378395,0.00084449501,-0.0010052573,9.7418604,-0.425648,1.018257,0.73946202,-0.081083998,-0.66557097,-0.060288001,-0.37462784,-1.4621857,0.17406564
3620307768704,0.1298903,0,,0.002378395,0.00084449501,-0.0010052573,9.7418604,-0.425648,1.018257,0.73946202,-0.081083998,-0.66557097,-0.060288001,-0.37462784,-1.4621857,0.17406564
3620309951328,0.13207293,0,,0.002378395,0.00084449501,-0.0010052573,9.7418604,-0.425648,1.018257,0.73946202,-0.081083998,-0.66557097,-0.060288001,-0.37462784,-1.4621857,0.17406564
3620311799456,0.13392106,0,,0.0050509477,-0.0014038556,-0.0012128817,9.6930065,-0.36823401,1.007102,0.73946398,-0.081078,-0.66557002,-0.060279999,-0.37463326,-1.4621808,0.17409026
3620313808000,0.1359296,0,,0.0050509477,-0.0014038556,-0.0012128817,9.6930065,-0.36823401,1.007102,0.73946398,-0.081078,-0.66557002,-0.060279999,-0.37463326,-1.4621808,0.17409026
3620315744320,0.13786592,0,,0.0044581816,-0.00049998447,0.0008659451,9.7219391,-0.43213901,1.00471,0.73946601,-0.081067003,-0.66557002,-0.060276002,-0.37453556,-1.4621802,0.17401411
3620317772928,0.13989453,0,,0.0044581816,-0.00049998447,0.0008659451,9.7219391,-0.43213901,1.00471,0.73946601,-0.081067003,-0.66557002,-0.060276002,-0.37453556,-1.4621802,0.17401411
3620319740768,0.14186237,0,,0.0044581816,-0.00049998447,0.0008659451,9.7219391,-0.43213901,1.00471,0.73946601,-0.081067003,-0.66557002,-0.060276002,-0.37453556,-1.4621802,0.17401411
3620321739136,0.14386074,0,,0.00092532124,-0.0033304023,0.0053729962,9.7705431,-0.45077801,1.021047,0.73946601,-0.081069,-0.66557097,-0.060263,-0.37470663,-1.4621758,0.17419963
3620323736960,0.14585856,0,,0.00092532124,-0.0033304023,0.0053729962,9.7705431,-0.45077801,1.021047,0.73946601,-0.081069,-0.66557097,-0.060263,-0.37470663,-1.4621758,0.17419963
3620325737216,0.14785882,0,,0.0038853996,-0.0018763162,0.00029537951,9.6733131,-0.40245801,0.98921901,0.73946398,-0.081073999,-0.665573,-0.060254999,-0.37487511,-1.4621758,0.1743737
3620327735264,0.14985686,0,,0.0038853996,-0.0018763162,0.00029537951,9.6733131,-0.40245801,0.98921901,0.73946398,-0.081073999,-0.665573,-0.060254999,-0.37487511,-1.4621758,0.1743737
3620329935264,0.15205686,0,,0.0038853996,-0.0018763162,0.00029537951,9.6733131,-0.40245801,0.98921901,0.73946398,-0.081073999,-0.665573,-0.060254999,-0.37487511,-1.4621758,0.1743737
3620331739744,0.15386134,0,,0.005396471,-0.00012493067,-0.00096891951,9.7022181,-0.35400501,0.958866,0.73946601,-0.081064999,-0.665573,-0.060249999,-0.37482161,-1.4621754,0.1743395
3620333753184,0.15587478,0,,0.005396471,-0.00012493067,-0.00096891951,9.7022181,-0.35400501,0.958866,0.73946601,-0.081064999,-0.665573,-0.060249999,-0.37482161,-1.4621754,0.1743395
3620335727232,0.15784883,0,,-0.0030387578,-0.0029784916,-0.001085682,9.7870607,-0.39059201,0.95623797,0.73946297,-0.081060998,-0.66557598,-0.060251001,-0.37477381,-1.4621861,0.17429582
3620337731072,0.15985267,0,,-0.0030387578,-0.0029784916,-0.001085682,9.7870607,-0.39059201,0.95623797,0.73946297,-0.081060998,-0.66557598,-0.060251001,-0.37477381,-1.4621861,0.17429582
3620339738464,0.16186006,0,,-0.0030387578,-0.0029784916,-0.001085682,9.7870607,-0.39059201,0.95623797,0.73946297,-0.081060998,-0.66557598,-0.060251001,-0.37477381,-1.4621861,0.17429582
3620341738752,0.16386035,0,,-0.005290861,-0.0076009265,-0.00058470274,9.8922262,-0.40579998,0.99094999,0.73945302,-0.081069,-0.66558599,-0.060261998,-0.37482511,-1.4622139,0.17432145
3620343731904,0.1658535,0,,-0.005290861,-0.0076009265,-0.00058470274,9.8922262,-0.40579998,0.99094999,0.73945302,-0.081069,-0.66558599,-0.060261998,-0.37482511,-1.4622139,0.17432145
3620345740160,0.16786176,0,,-0.0024912132,-0.0067535341,-8.7440995e-05,9.869956,-0.36440501,0.96643001,0.73944199,-0.081078999,-0.66559601,-0.060268,-0.37495281,-1.4622424,0.17442553
3620347768832,0.16989043,0,,-0.0024912132,-0.0067535341,-8.7440995e-05,9.869956,-0.36440501,0.96643001,0.73944199,-0.081078999,-0.66559601,-0.060268,-0.37495281,-1.4622424,0.17442553
3620349959104,0.1720807,0,,-0.0024912132,-0.0067535341,-8.7440995e-05,9.869956,-0.36440501,0.96643001,0.73944199,-0.081078999,-0.66559601,-0.060268,-0.37495281,-1.4622424,0.17442553
3620351784640,0.17390624,0,,0.0051477786,-0.0038355704,-0.00055628877,9.7735939,-0.30510101,0.93592399,0.73943102,-0.081078,-0.665609,-0.060268998,-0.37501146,-1.4622754,0.17448535
3620353779520,0.17590112,0,,0.0051477786,-0.0038355704,-0.00055628877,9.7735939,-0.30510101,0.93592399,0.73943102,-0.081078,-0.665609,-0.060268998,-0.37501146,-1.4622754,0.17448535
3620355752672,0.17787427,0,,0.0082942061,0.000852349,0.00062945301,9.7738733,-0.338061,0.95584702,0.739429,-0.081061997,-0.665613,-0.060261,-0.37492305,-1.4622865,0.17443038
3620357760992,0.17988259,0,,0.0082942061,0.000852349,0.00062945301,9.7738733,-0.338061,0.95584702,0.739429,-0.081061997,-0.665613,-0.060261,-0.37492305,-1.4622865,0.17443038
3620359746976,0.18186858,0,,0.0082942061,0.000852349,0.00062945301,9.7738733,-0.338061,0.95584702,0.739429,-0.081061997,-0.665613,-0.060261,-0.37492305,-1.4622865,0.17443038
3620361807904,0.1839295,0,,0.00020909044,-0.004925389,-0.00094553213,9.8564281,-0.40494299,0.98283398,0.73942697,-0.081051998,-0.66561699,-0.060258999,-0.37483373,-1.462297,0.17435877
3620363779936,0.18590154,0,,0.00020909044,-0.004925389,-0.00094553213,9.8564281,-0.40494299,0.98283398,0.73942697,-0.081051998,-0.66561699,-0.060258999,-0.37483373,-1.462297,0.17435877
3620365759616,0.18788122,0,,0.00020909044,-0.004925389,-0.00094553213,9.8564281,-0.40494299,0.98283398,0.73942697,-0.081051998,-0.66561699,-0.060258999,-0.37483373,-1.462297,0.17435877
3620367749536,0.18987114,0,,0.00020909044,-0.004925389,-0.00094553213,9.8564281,-0.40494299,0.98283398,0.73942697,-0.081051998,-0.66561699,-0.060258999,-0.37483373,-1.462297,0.17435877
3620369950528,0.19207213,0,,0.00020909044,-0.004925389,-0.00094553213,9.8564281,-0.40494299,0.98283398,0.73942697,-0.081051998,-0.66561699,-0.060258999,-0.37483373,-1.462297,0.17435877
3620371748576,0.19387018,0,,-0.0035253207,-0.00053996996,-0.00091776393,9.6342516,-0.34413299,0.96626198,0.73940998,-0.081064999,-0.66563201,-0.060276002,-0.37492365,-1.4623415,0.17440524
3620373767872,0.19588947,0,,-0.0035253207,-0.00053996996,-0.00091776393,9.6342516,-0.34413299,0.96626198,0.73940998,-0.081064999,-0.66563201,-0.060276002,-0.37492365,-1.4623415,0.17440524
3620375746688,0.19786829,0,,0.0056463494,-0.00077834706,-0.0011605916,9.7142239,-0.47649801,0.96229202,0.73940897,-0.081061997,-0.66563302,-0.060277998,-0.37486219,-1.4623476,0.17434524
3620377748672,0.19987027,0,,0.0056463494,-0.00077834706,-0.0011605916,9.7142239,-0.47649801,0.96229202,0.73940897,-0.081061997,-0.66563302,-0.060277998,-0.37486219,-1.4623476,0.17434524
3620379760768,0.20188237,0,,0.0056463494,-0.00077834706,-0.0011605916,9.7142239,-0.47649801,0.96229202,0.73940897,-0.081061997,-0.66563302,-0.060277998,-0.37486219,-1.4623476,0.17434524
3620381746240,0.20386784,0,,0.0066505946,-0.0029897663,0.0014853449,9.8217154,-0.43654498,1.031665,0.73940802,-0.081052996,-0.66563797,-0.060261998,-0.37494985,-1.4623525,0.17446884
3620383747424,0.20586902,0,,0.0066505946,-0.0029897663,0.0014853449,9.8217154,-0.43654498,1.031665,0.73940802,-0.081052996,-0.66563797,-0.060261998,-0.37494985,-1.4623525,0.17446884
3620385744672,0.20786627,0,,-0.00020551252,-0.004318503,-0.00029562385,9.7789021,-0.36995599,1.008204,0.73940498,-0.081051998,-0.66564101,-0.060256001,-0.37503803,-1.4623592,0.17456741
3620387738752,0.20986035,0,,-0.00020551252,-0.004318503,-0.00029562385,9.7789021,-0.36995599,1.008204,0.73940498,-0.081051998,-0.66564101,-0.060256001,-0.37503803,-1.4623592,0.17456741
3620389933440,0.21205504,0,,-0.00020551252,-0.004318503,-0.00029562385,9.7789021,-0.36995599,1.008204,0.73940498,-0.081051998,-0.66564101,-0.060256001,-0.37503803,-1.4623592,0.17456741
3620391805664,0.21392726,0,,-0.0006172357,0.00062678263,-0.00066355675,9.7492094,-0.408299,0.95343,0.73940301,-0.081052996,-0.66564298,-0.060263,-0.37498167,-1.462368,0.17449982
3620393757600,0.2158792,0,,-0.0006172357,0.00062678263,-0.00066355675,9.7492094,-0.408299,0.95343,0.73940301,-0.081052996,-0.66564298,-0.060263,-0.37498167,-1.462368,0.17449982
3620395757472,0.21787907,0,,-0.0027538155,-0.00063641683,0.0013992828,9.8114662,-0.45761901,1.0107419,0.73940301,-0.081056997,-0.66564202,-0.060261998,-0.37503237,-1.4623641,0.17454521
3620397759968,0.21988157,0,,-0.0027538155,-0.00063641683,0.0013992828,9.8114662,-0.45761901,1.0107419,0.73940301,-0.081056997,-0.66564202,-0.060261998,-0.37503237,-1.4623641,0.17454521
3620399736320,0.22185792,0,,-0.0027538155,-0.00063641683,0.0013992828,9.8114662,-0.45761901,1.0107419,0.73940301,-0.081056997,-0.66564202,-0.060261998,-0.37503237,-1.4623641,0.17454521
3620401815776,0.22393738,0,,-0.0056965801,-0.0033181502,-0.00036964328,9.8563385,-0.39968801,1.0548019,0.73939997,-0.081069,-0.66564399,-0.060268998,-0.37512954,-1.4623691,0.1746165
3620403729248,0.22585085,0,,-0.0056965801,-0.0033181502,-0.00036964328,9.8563385,-0.39968801,1.0548019,0.73939997,-0.081069,-0.66564399,-0.060268998,-0.37512954,-1.4623691,0.1746165
3620405736160,0.22785776,0,,-0.003976628,-0.001926442,0.0021720099,9.8289566,-0.456738,1.003836,0.739398,-0.081083,-0.66564399,-0.060277,-0.37523137,-1.4623691,0.17468667
3620407756192,0.22987779,0,,-0.003976628,-0.001926442,0.0021720099,9.8289566,-0.456738,1.003836,0.739398,-0.081083,-0.66564399,-0.060277,-0.37523137,-1.4623691,0.17468667
3620409927936,0.23204954,0,,-0.003976628,-0.001926442,0.0021720099,9.8289566,-0.456738,1.003836,0.739398,-0.081083,-0.66564399,-0.060277,-0.37523137,-1.4623691,0.17468667
3620411780288,0.23390189,0,,0.003903202,-0.0014982779,0.0034983029,9.7358274,-0.50509602,0.97921997,0.739398,-0.081088997,-0.66564399,-0.060268,-0.3754171,-1.4623624,0.17487597
3620413750976,0.23587258,0,,0.003903202,-0.0014982779,0.0034983029,9.7358274,-0.50509602,0.97921997,0.739398,-0.081088997,-0.66564399,-0.060268,-0.3754171,-1.4623624,0.17487597
3620415744416,0.23786602,0,,0.0034887213,-0.0044980276,0.0025509034,9.7462864,-0.39995798,1.02069,0.73939502,-0.081090003,-0.665649,-0.060251001,-0.37565711,-1.4623673,0.17513888
3620417767008,0.23988861,0,,0.0034887213,-0.0044980276,0.0025509034,9.7462864,-0.39995798,1.02069,0.73939502,-0.081090003,-0.665649,-0.060251001,-0.37565711,-1.4623673,0.17513888
3620419742080,0.24186368,0,,0.0034887213,-0.0044980276,0.0025509034,9.7462864,-0.39995798,1.02069,0.73939502,-0.081090003,-0.665649,-0.060251001,-0.37565711,-1.4623673,0.17513888
3620421747968,0.24386957,0,,0.0047054426,-0.00072820375,-0.0034224335,9.7036085,-0.394492,0.98898602,0.739393,-0.081083,-0.66565198,-0.060245998,-0.37563914,-1.4623734,0.17513815
3620423738880,0.24586048,0,,0.0047054426,-0.00072820375,-0.0034224335,9.7036085,-0.394492,0.98898602,0.739393,-0.081083,-0.66565198,-0.060245998,-0.37563914,-1.4623734,0.17513815
3620425741600,0.2478632,0,,0.0031847373,0.0014563725,-0.00027068311,9.6760139,-0.40250501,0.96930999,0.73939699,-0.081072003,-0.665649,-0.060245998,-0.37546786,-1.4623691,0.17498203
3620427771200,0.2498928,0,,0.0031847373,0.0014563725,-0.00027068311,9.6760139,-0.40250501,0.96930999,0.73939699,-0.081072003,-0.665649,-0.060245998,-0.37546786,-1.4623691,0.17498203
3620429979488,0.25210109,0,,0.0031847373,0.0014563725,-0.00027068311,9.6760139,-0.40250501,0.96930999,0.73939699,-0.081072003,-0.665649,-0.060245998,-0.37546786,-1.4623691,0.17498203
3620431744096,0.2538657,0,,0.0014896211,-0.0027075815,0.0025926518,9.688365,-0.374937,0.97233701,0.73939699,-0.081072003,-0.66565001,-0.060238998,-0.37556141,-1.4623685,0.17508731
3620433772160,0.25589376,0,,0.0014896211,-0.0027075815,0.0025926518,9.688365,-0.374937,0.97233701,0.73939699,-0.081072003,-0.66565001,-0.060238998,-0.37556141,-1.4623685,0.17508731
3620435741888,0.25786349,0,,-0.0010102664,-0.00074413857,0.0011528074,9.8185368,-0.338588,0.97573799,0.73939401,-0.081077002,-0.66565198,-0.060238998,-0.37563631,-1.4623724,0.17515374
3620437745888,0.25986749,0,,-0.0010102664,-0.00074413857,0.0011528074,9.8185368,-0.338588,0.97573799,0.73939401,-0.081077002,-0.66565198,-0.060238998,-0.37563631,-1.4623724,0.17515374
3620439739168,0.26186077,0,,-0.0010102664,-0.00074413857,0.0011528074,9.8185368,-0.338588,0.97573799,0.73939401,-0.081077002,-0.66565198,-0.060238998,-0.37563631,-1.4623724,0.17515374
3620441740320,0.26386192,0,,0.0039568883,-0.0013896835,0.0022176501,9.8949909,-0.410072,0.97152102,0.73939502,-0.081075996,-0.66565198,-0.060237002,-0.37564496,-1.4623706,0.17516721
3620443776160,0.26589776,0,,0.0039568883,-0.0013896835,0.0022176501,9.8949909,-0.410072,0.97152102,0.73939502,-0.081075996,-0.66565198,-0.060237002,-0.37564496,-1.4623706,0.17516721
3620445737312,0.26785891,0,,0.0010773219,-0.0025338342,-0.00046731192,9.8951492,-0.41005799,0.960769,0.73939198,-0.081073999,-0.66565597,-0.060231,-0.37572273,-1.4623785,0.17525641
3620447732416,0.26985402,0,,0.0010773219,-0.0025338342,-0.00046731192,9.8951492,-0.41005799,0.960769,0.73939198,-0.081073999,-0.66565597,-0.060231,-0.37572273,-1.4623785,0.17525641
3620449937632,0.27205923,0,,0.0010773219,-0.0025338342,-0.00046731192,9.8951492,-0.41005799,0.960769,0.73939198,-0.081073999,-0.66565597,-0.060231,-0.37572273,-1.4623785,0.17525641
3620451727360,0.27384896,0,,-0.0045226192,-0.0060558561,0.00040290926,9.7981138,-0.270347,0.97074699,0.73938298,-0.081078999,-0.66566497,-0.060236,-0.37577912,-1.4624043,0.17529903
3620453737504,0.2758591,0,,-0.0045226192,-0.0060558561,0.00040290926,9.7981138,-0.270347,0.97074699,0.73938298,-0.081078999,-0.66566497,-0.060236,-0.37577912,-1.4624043,0.17529903
3620455727328,0.27784893,0,,0.00084624031,-0.0029509154,0.001411343,9.7424469,-0.33074701,0.96173102,0.73937601,-0.081079997,-0.665672,-0.060244001,-0.37575186,-1.4624263,0.17525869
3620457748480,0.27987008,0,,0.00084624031,-0.0029509154,0.001411343,9.7424469,-0.33074701,0.96173102,0.73937601,-0.081079997,-0.665672,-0.060244001,-0.37575186,-1.4624263,0.17525869
3620459757888,0.28187949,0,,0.00084624031,-0.0029509154,0.001411343,9.7424469,-0.33074701,0.96173102,0.73937601,-0.081079997,-0.665672,-0.060244001,-0.37575186,-1.4624263,0.17525869
3620461758336,0.28387994,0,,-0.0012593423,-0.00050811771,0.0013178982,9.7863531,-0.437794,0.952806,0.73937201,-0.081081003,-0.665676,-0.060244001,-0.37579054,-1.462438,0.17529579
3620463830816,0.28595242,0,,-0.0012593423,-0.00050811771,0.0013178982,9.7863531,-0.437794,0.952806,0.73937201,-0.081081003,-0.665676,-0.060244001,-0.37579054,-1.462438,0.17529579
3620465843392,0.28796499,0,,-0.0019426737,0.0031514189,-0.0003425383,9.7469559,-0.337598,0.99111199,0.73937201,-0.081087999,-0.66567498,-0.060245,-0.37587203,-1.462433,0.17536551
3620467828992,0.28995059,0,,-0.0019426737,0.0031514189,-0.0003425383,9.7469559,-0.337598,0.99111199,0.73937201,-0.081087999,-0.66567498,-0.060245,-0.37587203,-1.462433,0.17536551
3620469829024,0.29195062,0,,-0.0019426737,0.0031514189,-0.0003425383,9.7469559,-0.337598,0.99111199,0.73937201,-0.081087999,-0.66567498,-0.060245,-0.37587203,-1.462433,0.17536551
3620471754976,0.29387658,0,,-0.0012791169,0.0042947491,-0.00085067347,9.6702127,-0.346919,0.98899901,0.73937899,-0.081087001,-0.66566598,-0.060256001,-0.37568188,-1.4624153,0.1751616
3620473764384,0.29588598,0,,-0.0012791169,0.0042947491,-0.00085067347,9.6702127,-0.346919,0.98899901,0.73937899,-0.081087001,-0.66566598,-0.060256001,-0.37568188,-1.4624153,0.1751616
3620475749728,0.29787133,0,,0.0010487684,-0.00016662658,-0.00029115584,9.7061958,-0.47280899,0.96765602,0.739384,-0.081084996,-0.66566002,-0.060261,-0.37553844,-1.4624038,0.17501369
3620477772032,0.29989363,0,,0.0010487684,-0.00016662658,-0.00029115584,9.7061958,-0.47280899,0.96765602,0.739384,-0.081084996,-0.66566002,-0.060261,-0.37553844,-1.4624038,0.17501369
3620479742592,0.30186419,0,,0.0010487684,-0.00016662658,-0.00029115584,9.7061958,-0.47280899,0.96765602,0.739384,-0.081084996,-0.66566002,-0.060261,-0.37553844,-1.4624038,0.17501369
3620481739200,0.3038608,0,,0.0023810306,-0.0033499152,-0.00031552061,9.7043629,-0.38812301,1.015615,0.73938197,-0.081083998,-0.665663,-0.060256999,-0.3755932,-1.4624109,0.17507578
3620483737856,0.30585946,0,,0.0023810306,-0.0033499152,-0.00031552061,9.7043629,-0.38812301,1.015615,0.73938197,-0.081083998,-0.665663,-0.060256999,-0.3755932,-1.4624109,0.17507578
3620485737568,0.30785917,0,,0.0025010219,-0.00081691881,0.0028704557,9.700408,-0.35207599,1.017698,0.73938197,-0.081081003,-0.66566402,-0.060252,-0.37562006,-1.4624091,0.17511354
3620487749664,0.30987126,0,,0.0025010219,-0.00081691881,0.0028704557,9.700408,-0.35207599,1.017698,0.73938197,-0.081081003,-0.66566402,-0.060252,-0.37562006,-1.4624091,0.17511354
3620489938880,0.31206048,0,,0.0025010219,-0.00081691881,0.0028704557,9.700408,-0.35207599,1.017698,0.73938197,-0.081081003,-0.66566402,-0.060252,-0.37562006,-1.4624091,0.17511354
3620491732480,0.31385408,0,,0.00059184113,-0.00017219419,0.0034580907,9.868228,-0.52265197,0.980901,0.739384,-0.081083998,-0.66566098,-0.060247999,-0.37569044,-1.4623998,0.17518583
3620493738176,0.31585978,0,,0.00059184113,-0.00017219419,0.0034580907,9.868228,-0.52265197,0.980901,0.739384,-0.081083998,-0.66566098,-0.060247999,-0.37569044,-1.4623998,0.17518583
3620495820640,0.31794224,0,,0.0019981053,-0.0028989395,8.5276786e-05,9.984992,-0.51971,1.023497,0.73938197,-0.081091002,-0.665663,-0.06024,-0.37588874,-1.462401,0.17538572
3620497759680,0.31988128,0,,0.0019981053,-0.0028989395,8.5276786e-05,9.984992,-0.51971,1.023497,0.73938197,-0.081091002,-0.665663,-0.06024,-0.37588874,-1.462401,0.17538572
3620499760256,0.32188186,0,,0.0019981053,-0.0028989395,8.5276786e-05,9.984992,-0.51971,1.023497,0.73938197,-0.081091002,-0.665663,-0.06024,-0.37588874,-1.462401,0.17538572
3620501738240,0.32385984,0,,0.0039782337,-0.0062519267,-0.0034132357,9.8992357,-0.41695499,1.023708,0.73937702,-0.081086002,-0.66567099,-0.060231,-0.37598795,-1.4624153,0.17550436
3620503721984,0.32584358,0,,0.0039782337,-0.0062519267,-0.0034132357,9.8992357,-0.41695499,1.023708,0.73937702,-0.081086002,-0.66567099,-0.060231,-0.37598795,-1.4624153,0.17550436
3620505755808,0.32787741,0,,0.005406681,-0.0035604019,-0.0054445369,9.7939386,-0.432284,0.99064398,0.739371,-0.081073001,-0.66567898,-0.060233001,-0.3758449,-1.46244,0.1753776
3620507719488,0.32984109,0,,0.005406681,-0.0035604019,-0.0054445369,9.7939386,-0.432284,0.99064398,0.739371,-0.081073001,-0.66567898,-0.060233001,-0.3758449,-1.46244,0.1753776
3620509922816,0.33204442,0,,0.005406681,-0.0035604019,-0.0054445369,9.7939386,-0.432284,0.99064398,0.739371,-0.081073001,-0.66567898,-0.060233001,-0.3758449,-1.46244,0.1753776
3620511726080,0.33384768,0,,0.0023128405,-0.0010370397,-0.0024461663,9.7252798,-0.41461,0.98804802,0.73936802,-0.081060998,-0.66568398,-0.060231999,-0.37571287,-1.4624549,0.17526316
3620513757472,0.33587907,0,,0.0023128405,-0.0010370397,-0.0024461663,9.7252798,-0.41461,0.98804802,0.73936802,-0.081060998,-0.66568398,-0.060231999,-0.37571287,-1.4624549,0.17526316
3620515738464,0.33786006,0,,-5.900958e-05,-0.0029331305,-0.00068947485,9.6899433,-0.30658999,1.0254689,0.73936599,-0.081058003,-0.66568702,-0.060233001,-0.37567116,-1.4624655,0.17522533
3620517733376,0.33985498,0,,-5.900958e-05,-0.0029331305,-0.00068947485,9.6899433,-0.30658999,1.0254689,0.73936599,-0.081058003,-0.66568702,-0.060233001,-0.37567116,-1.4624655,0.17522533
3620519713472,0.34183507,0,,-5.900958e-05,-0.0029331305,-0.00068947485,9.6899433,-0.30658999,1.0254689,0.73936599,-0.081058003,-0.66568702,-0.060233001,-0.37567116,-1.4624655,0.17522533
3620521748416,0.34387002,0,,-0.0027541645,-0.00093155203,0.0018396468,9.5838299,-0.36404401,0.97061801,0.73936498,-0.08106,-0.66568702,-0.060240999,-0.37561723,-1.4624677,0.17515652
3620523743936,0.34586554,0,,-0.0027541645,-0.00093155203,0.0018396468,9.5838299,-0.36404401,0.97061801,0.73936498,-0.08106,-0.66568702,-0.060240999,-0.37561723,-1.4624677,0.17515652
3620525761984,0.34788358,0,,-0.0027541645,-0.00093155203,0.0018396468,9.5838299,-0.36404401,0.97061801,0.73936498,-0.08106,-0.66568702,-0.060240999,-0.37561723,-1.4624677,0.17515652
3620527740928,0.34986253,0,,-0.0027541645,-0.00093155203,0.0018396468,9.5838299,-0.36404401,0.97061801,0.73936498,-0.08106,-0.66568702,-0.060240999,-0.37561723,-1.4624677,0.17515652
3620529980576,0.35210218,0,,-0.0027541645,-0.00093155203,0.0018396468,9.5838299,-0.36404401,0.97061801,0.73936498,-0.08106,-0.66568702,-0.060240999,-0.37561723,-1.4624677,0.17515652
3620531754816,0.35387642,0,,0.0058613044,-9.6883229e-05,0.00078407169,9.7089558,-0.34905899,0.97667199,0.73936599,-0.081069,-0.665685,-0.060235001,-0.37579936,-1.4624584,0.17533565
3620533805632,0.35592723,0,,0.0058613044,-9.6883229e-05,0.00078407169,9.7089558,-0.34905899,0.97667199,0.73936599,-0.081069,-0.665685,-0.060235001,-0.37579936,-1.4624584,0.17533565
3620535742144,0.35786374,0,,0.0045114844,0.0013230817,-0.0012006119,9.7557898,-0.33333501,0.98036498,0.73936802,-0.081056997,-0.66568398,-0.060231,-0.37568408,-1.462456,0.17524203
3620537745920,0.35986752,0,,0.0045114844,0.0013230817,-0.0012006119,9.7557898,-0.33333501,0.98036498,0.73936802,-0.081056997,-0.66568398,-0.060231,-0.37568408,-1.462456,0.17524203
3620539737088,0.36185869,0,,0.0045114844,0.0013230817,-0.0012006119,9.7557898,-0.33333501,0.98036498,0.73936802,-0.081056997,-0.66568398,-0.060231,-0.37568408,-1.462456,0.17524203
3620541764512,0.36388611,0,,0.0022595208,0.0045616797,0.0022965216,9.7698088,-0.37892899,0.95388901,0.739375,-0.081051998,-0.66567701,-0.060231,-0.37557133,-1.4624395,0.17513685
3620543737056,0.36585866,0,,0.0022595208,0.0045616797,0.0022965216,9.7698088,-0.37892899,0.95388901,0.739375,-0.081051998,-0.66567701,-0.060231,-0.37557133,-1.4624395,0.17513685
3620545780544,0.36790214,0,,0.0013482145,0.0025238159,0.00093743381,9.8697329,-0.356345,0.95610601,0.73937899,-0.081050001,-0.66567302,-0.060226999,-0.37555312,-1.4624292,0.17512666
3620547736896,0.3698585,0,,0.0013482145,0.0025238159,0.00093743381,9.8697329,-0.356345,0.95610601,0.73937899,-0.081050001,-0.66567302,-0.060226999,-0.37555312,-1.4624292,0.17512666
3620549959200,0.3720808,0,,0.0013482145,0.0025238159,0.00093743381,9.8697329,-0.356345,0.95610601,0.73937899,-0.081050001,-0.66567302,-0.060226999,-0.37555312,-1.4624292,0.17512666
3620551748160,0.37386976,0,,0.00016983799,0.0036661164,0.0015379318,9.9659214,-0.38538301,0.97261697,0.739384,-0.081050999,-0.66566801,-0.060228001,-0.37551294,-1.462417,0.1750845
3620553762400,0.375884,0,,0.00016983799,0.0036661164,0.0015379318,9.9659214,-0.38538301,0.97261697,0.739384,-0.081050999,-0.66566801,-0.060228001,-0.37551294,-1.462417,0.1750845
3620555718240,0.37783984,0,,0.0013454918,-0.00090867076,-0.001266725,9.9997482,-0.42628801,0.99146301,0.73938501,-0.081050001,-0.66566598,-0.060231999,-0.37544599,-1.4624126,0.17501291
3620557735680,0.37985728,0,,0.0013454918,-0.00090867076,-0.001266725,9.9997482,-0.42628801,0.99146301,0.73938501,-0.081050001,-0.66566598,-0.060231999,-0.37544599,-1.4624126,0.17501291
3620559717376,0.38183898,0,,0.0013454918,-0.00090867076,-0.001266725,9.9997482,-0.42628801,0.99146301,0.73938501,-0.081050001,-0.66566598,-0.060231999,-0.37544599,-1.4624126,0.17501291
3620561738368,0.38385997,0,,0.0020847434,0.0016972105,-0.0036178232,9.8826303,-0.41656598,1.002111,0.73938698,-0.081046999,-0.66566402,-0.060231,-0.37540551,-1.4624065,0.17497734
3620563719552,0.38584115,0,,0.0020847434,0.0016972105,-0.0036178232,9.8826303,-0.41656598,1.002111,0.73938698,-0.081046999,-0.66566402,-0.060231,-0.37540551,-1.4624065,0.17497734
3620565745952,0.38786755,0,,0.0023441342,-0.00041563271,-0.0051535907,9.6972475,-0.36572,0.978369,0.739389,-0.081036001,-0.665663,-0.060235001,-0.37519892,-1.4624091,0.17478053
3620567716864,0.38983846,0,,0.0023441342,-0.00041563271,-0.0051535907,9.6972475,-0.36572,0.978369,0.739389,-0.081036001,-0.665663,-0.060235001,-0.37519892,-1.4624091,0.17478053
3620569932736,0.39205434,0,,0.0023441342,-0.00041563271,-0.0051535907,9.6972475,-0.36572,0.978369,0.739389,-0.081036001,-0.665663,-0.060235001,-0.37519892,-1.4624091,0.17478053
3620571714368,0.39383597,0,,0.0052057413,0.0037497352,0.00035672786,9.6454515,-0.36001399,0.97725201,0.73939401,-0.081023999,-0.66565901,-0.060236,-0.37500547,-1.4624026,0.17460365
3620573723200,0.3958448,0,,0.0052057413,0.0037497352,0.00035672786,9.6454515,-0.36001399,0.97725201,0.73939401,-0.081023999,-0.66565901,-0.060236,-0.37500547,-1.4624026,0.17460365
3620575719200,0.3978408,0,,0.001388008,0.0012325864,-0.00021692697,9.6117687,-0.37303701,1.003087,0.73939997,-0.081017002,-0.66565299,-0.060233999,-0.37488553,-1.4623866,0.17449714
3620577725664,0.39984726,0,,0.001388008,0.0012325864,-0.00021692697,9.6117687,-0.37303701,1.003087,0.73939997,-0.081017002,-0.66565299,-0.060233999,-0.37488553,-1.4623866,0.17449714
3620579742656,0.40186426,0,,0.001388008,0.0012325864,-0.00021692697,9.6117687,-0.37303701,1.003087,0.73939997,-0.081017002,-0.66565299,-0.060233999,-0.37488553,-1.4623866,0.17449714
3620581742816,0.40386442,0,,-0.0037948693,-0.0021092129,0.00025450391,9.5353079,-0.36172599,1.006817,0.73939997,-0.081018999,-0.66565198,-0.060238998,-0.37484189,-1.4623878,0.17444218
3620583739936,0.40586154,0,,-0.0037948693,-0.0021092129,0.00025450391,9.5353079,-0.36172599,1.006817,0.73939997,-0.081018999,-0.66565198,-0.060238998,-0.37484189,-1.4623878,0.17444218
3620585741792,0.40786339,0,,-0.004149974,-0.0078986794,-0.00043355723,9.5551214,-0.37244499,0.98851103,0.73939401,-0.081028998,-0.665658,-0.060249001,-0.37490301,-1.4624038,0.1744753
3620587738496,0.4098601,0,,-0.004149974,-0.0078986794,-0.00043355723,9.5551214,-0.37244499,0.98851103,0.73939401,-0.081028998,-0.665658,-0.060249001,-0.37490301,-1.4624038,0.1744753
3620589897632,0.41201923,0,,-0.004149974,-0.0078986794,-0.00043355723,9.5551214,-0.37244499,0.98851103,0.73939401,-0.081028998,-0.665658,-0.060249001,-0.37490301,-1.4624038,0.1744753
3620591812320,0.41393392,0,,0.007663374,-0.0012973207,0.00061765455,9.7276173,-0.46568799,0.99408799,0.73938799,-0.081027001,-0.66566402,-0.060247,-0.37494705,-1.4624218,0.17452402
3620593812448,0.41593405,0,,0.007663374,-0.0012973207,0.00061765455,9.7276173,-0.46568799,0.99408799,0.73938799,-0.081027001,-0.66566402,-0.060247,-0.37494705,-1.4624218,0.17452402
3620595830208,0.41795181,0,,0.0070395238,0.0043111377,0.0049756021,9.921854,-0.48908201,1.026933,0.73939502,-0.081018001,-0.66565901,-0.060226999,-0.37502005,-1.4623998,0.17463849
3620597742944,0.41986454,0,,0.0070395238,0.0043111377,0.0049756021,9.921854,-0.48908201,1.026933,0.73939502,-0.081018001,-0.66565901,-0.060226999,-0.37502005,-1.4623998,0.17463849
3620599760448,0.42188205,0,,0.0070395238,0.0043111377,0.0049756021,9.921854,-0.48908201,1.026933,0.73939502,-0.081018001,-0.66565901,-0.060226999,-0.37502005,-1.4623998,0.17463849
3620601733312,0.42385491,0,,0.00310145,-0.00023003439,0.0025639934,9.9845943,-0.499284,1.026278,0.73940301,-0.081021003,-0.66565102,-0.060210001,-0.37519902,-1.4623706,0.17483831
3620603726144,0.42584774,0,,0.00310145,-0.00023003439,0.0025639934,9.9845943,-0.499284,1.026278,0.73940301,-0.081021003,-0.66565102,-0.060210001,-0.37519902,-1.4623706,0.17483831
3620605730176,0.42785178,0,,0.0063873115,-0.002391101,-0.00047080257,9.9259605,-0.43176901,0.99548799,0.73940402,-0.081018001,-0.66565198,-0.060196999,-0.37532422,-1.4623663,0.17498581
3620607724512,0.42984611,0,,0.0063873115,-0.002391101,-0.00047080257,9.9259605,-0.43176901,0.99548799,0.73940402,-0.081018001,-0.66565198,-0.060196999,-0.37532422,-1.4623663,0.17498581
3620609923264,0.43204486,0,,0.0063873115,-0.002391101,-0.00047080257,9.9259605,-0.43176901,0.99548799,0.73940402,-0.081018001,-0.66565198,-0.060196999,-0.37532422,-1.4623663,0.17498581
3620611724064,0.43384566,0,,0.0020947965,-0.0017316983,0.00024582963,9.8690376,-0.39683399,0.999098,0.73940098,-0.081010997,-0.66565698,-0.060187999,-0.37536237,-1.4623756,0.1750455
3620613722624,0.43584422,0,,0.0020947965,-0.0017316983,0.00024582963,9.8690376,-0.39683399,0.999098,0.73940098,-0.081010997,-0.66565698,-0.060187999,-0.37536237,-1.4623756,0.1750455
3620615717152,0.43783875,0,,0.00075178313,0.0019381183,-0.00058559284,9.8270149,-0.39183798,1.003394,0.739402,-0.081009999,-0.66565698,-0.060187999,-0.37534622,-1.4623752,0.17503195
3620617723328,0.43984493,0,,0.00075178313,0.0019381183,-0.00058559284,9.8270149,-0.39183798,1.003394,0.739402,-0.081009999,-0.66565698,-0.060187999,-0.37534622,-1.4623752,0.17503195
3620619713312,0.44183491,0,,0.00075178313,0.0019381183,-0.00058559284,9.8270149,-0.39183798,1.003394,0.739402,-0.081009999,-0.66565698,-0.060187999,-0.37534622,-1.4623752,0.17503195
3620621733504,0.4438551,0,,0.0059747681,0.00040439279,0.00036163221,9.6863613,-0.388841,0.96636301,0.739407,-0.081003003,-0.66565102,-0.060185999,-0.37522775,-1.4623624,0.17492637
3620623710624,0.44583222,0,,0.0059747681,0.00040439279,0.00036163221,9.6863613,-0.388841,0.96636301,0.739407,-0.081003003,-0.66565102,-0.060185999,-0.37522775,-1.4623624,0.17492637
3620625714688,0.44783629,0,,0.0076087802,-0.00059889226,0.0015953531,9.5942125,-0.283268,0.958413,0.73940802,-0.080992997,-0.66565299,-0.060173001,-0.37526683,-1.4623619,0.17499806
3620627707744,0.44982934,0,,0.0076087802,-0.00059889226,0.0015953531,9.5942125,-0.283268,0.958413,0.73940802,-0.080992997,-0.66565299,-0.060173001,-0.37526683,-1.4623619,0.17499806
3620629920896,0.4520425,0,,0.0076087802,-0.00059889226,0.0015953531,9.5942125,-0.283268,0.958413,0.73940802,-0.080992997,-0.66565299,-0.060173001,-0.37526683,-1.4623619,0.17499806
3620631710048,0.45383165,0,,0.0035613793,-0.00051382494,-0.0011369773,9.5933676,-0.308947,0.94231701,0.73940897,-0.080981001,-0.66565299,-0.060171999,-0.37510627,-1.4623656,0.174857
3620633712992,0.45583459,0,,0.0035613793,-0.00051382494,-0.0011369773,9.5933676,-0.308947,0.94231701,0.73940897,-0.080981001,-0.66565299,-0.060171999,-0.37510627,-1.4623656,0.174857
3620635736096,0.4578577,0,,0.0028110971,0.0011139563,-0.0014086901,9.6566591,-0.37596101,0.944628,0.73940897,-0.080972001,-0.66565502,-0.060173001,-0.37497807,-1.4623741,0.17473977
3620637763264,0.45988486,0,,0.0028110971,0.0011139563,-0.0014086901,9.6566591,-0.37596101,0.944628,0.73940897,-0.080972001,-0.66565502,-0.060173001,-0.37497807,-1.4623741,0.17473977
3620639735936,0.46185754,0,,0.0028110971,0.0011139563,-0.0014086901,9.6566591,-0.37596101,0.944628,0.73940897,-0.080972001,-0.66565502,-0.060173001,-0.37497807,-1.4623741,0.17473977
3620641762400,0.463884,0,,0.0018913609,0.0027841667,-0.00039130282,9.7123337,-0.369046,0.95395398,0.739411,-0.080967002,-0.66565198,-0.060175002,-0.37488769,-1.4623673,0.17465332
3620643752384,0.46587398,0,,0.0018913609,0.0027841667,-0.00039130282,9.7123337,-0.369046,0.95395398,0.739411,-0.080967002,-0.66565198,-0.060175002,-0.37488769,-1.4623673,0.17465332
3620645767296,0.4678889,0,,0.0033168413,0.00041228169,0.00053660147,9.8118715,-0.31898001,0.95864201,0.73941398,-0.080963001,-0.66565001,-0.060173001,-0.37483723,-1.4623612,0.17461199
3620647742656,0.46986426,0,,0.0033168413,0.00041228169,0.00053660147,9.8118715,-0.31898001,0.95864201,0.73941398,-0.080963001,-0.66565001,-0.060173001,-0.37483723,-1.4623612,0.17461199
3620649903840,0.47202544,0,,0.0033168413,0.00041228169,0.00053660147,9.8118715,-0.31898001,0.95864201,0.73941398,-0.080963001,-0.66565001,-0.060173001,-0.37483723,-1.4623612,0.17461199
3620651737728,0.47385933,0,,0.0016376424,0.0025760013,0.00032524209,9.8723249,-0.35997999,0.979339,0.73941702,-0.080957003,-0.66564697,-0.060173001,-0.37472434,-1.4623556,0.17450701
3620653753440,0.47587504,0,,0.0016376424,0.0025760013,0.00032524209,9.8723249,-0.35997999,0.979339,0.73941702,-0.080957003,-0.66564697,-0.060173001,-0.37472434,-1.4623556,0.17450701
3620655726016,0.47784762,0,,0.00010630801,-0.0012518199,0.0038167733,9.9320002,-0.39985901,0.99300998,0.73941898,-0.080958001,-0.665645,-0.060173001,-0.37472834,-1.4623492,0.17450852
3620657730080,0.47985168,0,,0.00010630801,-0.0012518199,0.0038167733,9.9320002,-0.39985901,0.99300998,0.73941898,-0.080958001,-0.665645,-0.060173001,-0.37472834,-1.4623492,0.17450852
3620659721760,0.48184336,0,,0.00010630801,-0.0012518199,0.0038167733,9.9320002,-0.39985901,0.99300998,0.73941898,-0.080958001,-0.665645,-0.060173001,-0.37472834,-1.4623492,0.17450852
3620661757920,0.48387952,0,,-0.0016454441,0.00050879839,0.0027116309,9.8843603,-0.40654701,0.98856902,0.73941898,-0.080967002,-0.66564399,-0.060169,-0.37488696,-1.4623438,0.17466112
3620663725184,0.48584678,0,,-0.0016454441,0.00050879839,0.0027116309,9.8843603,-0.40654701,0.98856902,0.73941898,-0.080967002,-0.66564399,-0.060169,-0.37488696,-1.4623438,0.17466112
3620665762560,0.48788416,0,,0.00039465385,-0.0021858329,-0.00094265233,9.8279428,-0.39906901,0.99045801,0.73941797,-0.080972999,-0.665645,-0.060171001,-0.3749595,-1.462346,0.17472191
3620667720704,0.4898423,0,,0.00039465385,-0.0021858329,-0.00094265233,9.8279428,-0.39906901,0.99045801,0.73941797,-0.080972999,-0.665645,-0.060171001,-0.3749595,-1.462346,0.17472191
3620669919040,0.49204064,0,,0.00039465385,-0.0021858329,-0.00094265233,9.8279428,-0.39906901,0.99045801,0.73941797,-0.080972999,-0.665645,-0.060171001,-0.3749595,-1.462346,0.17472191
3620671716512,0.49383811,0,,0.0044473609,0.0001720371,0.0011305545,9.7669697,-0.44504601,1.015256,0.73941898,-0.080966003,-0.665645,-0.060164999,-0.3749335,-1.4623432,0.17471415
3620673747648,0.49586925,0,,0.0044473609,0.0001720371,0.0011305545,9.7669697,-0.44504601,1.015256,0.73941898,-0.080966003,-0.665645,-0.060164999,-0.3749335,-1.4623432,0.17471415
3620675737376,0.49785898,0,,-0.002282559,-0.0037577986,-0.0012304397,9.6661329,-0.442801,0.99974298,0.73941702,-0.080968998,-0.66564697,-0.060166001,-0.37497984,-1.4623481,0.17475507
3620677757504,0.4998791,0,,-0.002282559,-0.0037577986,-0.0012304397,9.6661329,-0.442801,0.99974298,0.73941702,-0.080968998,-0.66564697,-0.060166001,-0.37497984,-1.4623481,0.17475507
3620679720896,0.5018425,0,,-0.002282559,-0.0037577986,-0.0012304397,9.6661329,-0.442801,0.99974298,0.73941702,-0.080968998,-0.66564697,-0.060166001,-0.37497984,-1.4623481,0.17475507
3620681805600,0.5039272,0,,-0.0017691356,-0.0040835469,-0.00065243897,9.60147,-0.38584,1.002829,0.73941201,-0.080974996,-0.66565102,-0.060169999,-0.3750322,-1.462358,0.1747933
3620683715104,0.5058367,0,,-0.0017691356,-0.0040835469,-0.00065243897,9.60147,-0.38584,1.002829,0.73941201,-0.080974996,-0.66565102,-0.060169999,-0.3750322,-1.462358,0.1747933
3620685764256,0.50788586,0,,-0.00028185321,0.00021495475,0.0016947496,9.6334734,-0.38587201,0.99576402,0.73941201,-0.080977999,-0.66565102,-0.060169999,-0.37508497,-1.4623585,0.17484152
3620687709952,0.50983155,0,,-0.00028185321,0.00021495475,0.0016947496,9.6334734,-0.38587201,0.99576402,0.73941201,-0.080977999,-0.66565102,-0.060169999,-0.37508497,-1.4623585,0.17484152
3620689915520,0.51203712,0,,-0.00028185321,0.00021495475,0.0016947496,9.6334734,-0.38587201,0.99576402,0.73941201,-0.080977999,-0.66565102,-0.060169999,-0.37508497,-1.4623585,0.17484152
3620691713856,0.51383546,0,,-0.0018071314,-0.00047233844,-0.00017128661,9.6927919,-0.41670999,1.006616,0.73941398,-0.080982,-0.66564798,-0.060173001,-0.37507758,-1.462352,0.17482338
3620693721888,0.51584349,0,,-0.0018071314,-0.00047233844,-0.00017128661,9.6927919,-0.41670999,1.006616,0.73941398,-0.080982,-0.66564798,-0.060173001,-0.37507758,-1.462352,0.17482338
3620695827136,0.51794874,0,,0.00033082716,-0.0017681931,0.0026862188,9.7540627,-0.410202,1.020138,0.73941499,-0.080986001,-0.66564602,-0.060173001,-0.37512608,-1.462346,0.17486765
3620697751712,0.51987331,0,,0.00033082716,-0.0017681931,0.0026862188,9.7540627,-0.410202,1.020138,0.73941499,-0.080986001,-0.66564602,-0.060173001,-0.37512608,-1.462346,0.17486765
3620699742304,0.5218639,0,,0.00033082716,-0.0017681931,0.0026862188,9.7540627,-0.410202,1.020138,0.73941499,-0.080986001,-0.66564602,-0.060173001,-0.37512608,-1.462346,0.17486765
3620701758240,0.52387984,0,,0.0021797765,-0.0016348848,0.0018893363,9.8306074,-0.42509401,0.998276,0.73941499,-0.080991,-0.665645,-0.060166001,-0.37526739,-1.4623394,0.1750106
3620703749312,0.52587091,0,,0.0021797765,-0.0016348848,0.0018893363,9.8306074,-0.42509401,0.998276,0.73941499,-0.080991,-0.665645,-0.060166001,-0.37526739,-1.4623394,0.1750106
3620705756096,0.5278777,0,,0.0028239253,-0.00091001469,0.00063427011,9.8926449,-0.432197,0.98977798,0.73941398,-0.080989003,-0.66564798,-0.06016,-0.37532975,-1.4623438,0.17508536
3620707726144,0.52984774,0,,0.0028239253,-0.00091001469,0.00063427011,9.8926449,-0.432197,0.98977798,0.73941398,-0.080989003,-0.66564798,-0.06016,-0.37532975,-1.4623438,0.17508536
3620709923648,0.53204525,0,,0.0028239253,-0.00091001469,0.00063427011,9.8926449,-0.432197,0.98977798,0.73941398,-0.080989003,-0.66564798,-0.06016,-0.37532975,-1.4623438,0.17508536
3620711721280,0.53384288,0,,-2.9600784e-05,0.00084658939,-0.0019607902,9.924017,-0.423547,1.008375,0.73941797,-0.080989003,-0.66564399,-0.060159001,-0.37530514,-1.4623322,0.17506248
3620713870912,0.53599251,0,,-2.9600784e-05,0.00084658939,-0.0019607902,9.924017,-0.423547,1.008375,0.73941797,-0.080989003,-0.66564399,-0.060159001,-0.37530514,-1.4623322,0.17506248
3620715779232,0.53790083,0,,0.00027956683,-0.00062610196,0.0011336088,9.856576,-0.40068799,0.97869301,0.73941797,-0.080991,-0.66564298,-0.060160998,-0.37530308,-1.4623315,0.17505406
3620717780576,0.53990218,0,,0.00027956683,-0.00062610196,0.0011336088,9.856576,-0.40068799,0.97869301,0.73941797,-0.080991,-0.66564298,-0.060160998,-0.37530308,-1.4623315,0.17505406
3620719716640,0.54183824,0,,0.00027956683,-0.00062610196,0.0011336088,9.856576,-0.40068799,0.97869301,0.73941797,-0.080991,-0.66564298,-0.060160998,-0.37530308,-1.4623315,0.17505406
3620721723520,0.54384512,0,,-0.0017346303,0.0034587714,0.00167782,9.7658796,-0.387548,0.95949101,0.73942101,-0.080994003,-0.66563898,-0.06016,-0.37532958,-1.462319,0.17507834
3620723722144,0.54584374,0,,-0.0017346303,0.0034587714,0.00167782,9.7658796,-0.387548,0.95949101,0.73942101,-0.080994003,-0.66563898,-0.06016,-0.37532958,-1.462319,0.17507834
3620725738880,0.54786048,0,,-0.0010967997,0.001933563,0.0033130712,9.7053118,-0.34326601,0.97093499,0.73942602,-0.081001997,-0.66563302,-0.060162,-0.37536799,-1.4623023,0.17510231
3620727716640,0.54983824,0,,-0.0010967997,0.001933563,0.0033130712,9.7053118,-0.34326601,0.97093499,0.73942602,-0.081001997,-0.66563302,-0.060162,-0.37536799,-1.4623023,0.17510231
3620729921440,0.55204304,0,,-0.0010967997,0.001933563,0.0033130712,9.7053118,-0.34326601,0.97093499,0.73942602,-0.081001997,-0.66563302,-0.060162,-0.37536799,-1.4623023,0.17510231
3620731713856,0.55383546,0,,0.0029209132,-0.0026041359,9.6185092e-05,9.6386395,-0.30419901,0.97395802,0.73942697,-0.081003003,-0.66563201,-0.06016,-0.37541184,-1.4622997,0.17514665
3620733756864,0.55587846,0,,0.0029209132,-0.0026041359,9.6185092e-05,9.6386395,-0.30419901,0.97395802,0.73942697,-0.081003003,-0.66563201,-0.06016,-0.37541184,-1.4622997,0.17514665
3620735710016,0.55783162,0,,0.0039231336,-0.0035922717,-0.00083763588,9.6302414,-0.305096,0.96621597,0.73942101,-0.080994003,-0.66563898,-0.060160998,-0.37531184,-1.4623207,0.17505845
3620737723520,0.55984512,0,,0.0039231336,-0.0035922717,-0.00083763588,9.6302414,-0.305096,0.96621597,0.73942101,-0.080994003,-0.66563898,-0.060160998,-0.37531184,-1.4623207,0.17505845
3620739707648,0.56182925,0,,0.0039231336,-0.0035922717,-0.00083763588,9.6302414,-0.305096,0.96621597,0.73942101,-0.080994003,-0.66563898,-0.060160998,-0.37531184,-1.4623207,0.17505845
3620741771584,0.56389318,0,,0.0017012248,0.0019001051,0.0033119019,9.6745043,-0.32249999,0.95979798,0.73942101,-0.080989003,-0.66564,-0.060157999,-0.37529855,-1.4623222,0.17505635
3620743706368,0.56582797,0,,0.0017012248,0.0019001051,0.0033119019,9.6745043,-0.32249999,0.95979798,0.73942101,-0.080989003,-0.66564,-0.060157999,-0.37529855,-1.4623222,0.17505635
3620745727456,0.56784906,0,,0.0082527544,0.003052005,0.0047791305,9.7991495,-0.36762699,0.98633897,0.73942798,-0.080982,-0.66563499,-0.060148001,-0.37528434,-1.4623039,0.17506717
3620747702720,0.56982432,0,,0.0082527544,0.003052005,0.0047791305,9.7991495,-0.36762699,0.98633897,0.73942798,-0.080982,-0.66563499,-0.060148001,-0.37528434,-1.4623039,0.17506717
3620750067072,0.57218867,0,,0.0082527544,0.003052005,0.0047791305,9.7991495,-0.36762699,0.98633897,0.73942798,-0.080982,-0.66563499,-0.060148001,-0.37528434,-1.4623039,0.17506717
3620751730848,0.57385245,0,,0.0051233617,0.0033682585,0.0060589802,9.8777466,-0.46331301,0.97216302,0.73943597,-0.080978997,-0.665627,-0.060132001,-0.37537242,-1.4622793,0.1751825
3620753777632,0.57589923,0,,0.0051233617,0.0033682585,0.0060589802,9.8777466,-0.46331301,0.97216302,0.73943597,-0.080978997,-0.665627,-0.060132001,-0.37537242,-1.4622793,0.1751825
3620755744352,0.57786595,0,,0.0041156609,0.0013522462,-0.0014032098,9.9258976,-0.40865999,1.022598,0.73944199,-0.080978997,-0.665622,-0.060114998,-0.37552692,-1.4622577,0.17536009
3620757742016,0.57986362,0,,0.0041156609,0.0013522462,-0.0014032098,9.9258976,-0.40865999,1.022598,0.73944199,-0.080978997,-0.665622,-0.060114998,-0.37552692,-1.4622577,0.17536009
3620759755136,0.58187674,0,,0.0041156609,0.0013522462,-0.0014032098,9.9258976,-0.40865999,1.022598,0.73944199,-0.080978997,-0.665622,-0.060114998,-0.37552692,-1.4622577,0.17536009
3620761781632,0.58390323,0,,0.00071134385,-0.001507755,-0.0051629456,9.8731441,-0.46080601,0.98588502,0.73944402,-0.080967002,-0.66562098,-0.060121,-0.37528607,-1.4622595,0.17512738
3620763738944,0.58586054,0,,0.00071134385,-0.001507755,-0.0051629456,9.8731441,-0.46080601,0.98588502,0.73944402,-0.080967002,-0.66562098,-0.060121,-0.37528607,-1.4622595,0.17512738
3620765754368,0.58787597,0,,-0.0037808196,-0.0035344837,-0.0012364087,9.8222094,-0.42529401,0.99106401,0.73943901,-0.080968998,-0.66562599,-0.060128,-0.37526203,-1.4622754,0.17509139
3620767725856,0.58984746,0,,-0.0037808196,-0.0035344837,-0.0012364087,9.8222094,-0.42529401,0.99106401,0.73943901,-0.080968998,-0.66562599,-0.060128,-0.37526203,-1.4622754,0.17509139
3620769888384,0.59200998,0,,-0.0037808196,-0.0035344837,-0.0012364087,9.8222094,-0.42529401,0.99106401,0.73943901,-0.080968998,-0.66562599,-0.060128,-0.37526203,-1.4622754,0.17509139
3620771721632,0.59384323,0,,-0.0019066674,-0.0013126971,0.00096825632,9.7353258,-0.353681,1.0384459,0.73943502,-0.080977999,-0.66562802,-0.060136002,-0.37530934,-1.4622825,0.17511369
3620773721152,0.59584275,0,,-0.0019066674,-0.0013126971,0.00096825632,9.7353258,-0.353681,1.0384459,0.73943502,-0.080977999,-0.66562802,-0.060136002,-0.37530934,-1.4622825,0.17511369
3620775720384,0.59784198,0,,-0.0037242009,-0.00055682986,0.00034815828,9.6886339,-0.38528499,1.016089,0.73943698,-0.080982,-0.66562498,-0.060143001,-0.37526593,-1.4622772,0.17505495
3620777720768,0.59984237,0,,-0.0037242009,-0.00055682986,0.00034815828,9.6886339,-0.38528499,1.016089,0.73943698,-0.080982,-0.66562498,-0.060143001,-0.37526593,-1.4622772,0.17505495
3620779713632,0.60183523,0,,-0.0037242009,-0.00055682986,0.00034815828,9.6886339,-0.38528499,1.016089,0.73943698,-0.080982,-0.66562498,-0.060143001,-0.37526593,-1.4622772,0.17505495
3620781725696,0.6038473,0,,-0.0071875451,-0.0048121173,0.00014650294,9.664959,-0.45825899,0.98038,0.73943299,-0.080994003,-0.66562599,-0.060155999,-0.37529802,-1.4622837,0.17505166
3620783716480,0.60583808,0,,-0.0071875451,-0.0048121173,0.00014650294,9.664959,-0.45825899,0.98038,0.73943299,-0.080994003,-0.66562599,-0.060155999,-0.37529802,-1.4622837,0.17505166
3620785713248,0.60783485,0,,0.00098719311,-0.0021219014,0.0016712575,9.6766071,-0.41387901,0.99930501,0.73942798,-0.081008002,-0.665631,-0.060155999,-0.375519,-1.4622918,0.17525293
3620787708736,0.60983034,0,,0.00098719311,-0.0021219014,0.0016712575,9.6766071,-0.41387901,0.99930501,0.73942798,-0.081008002,-0.665631,-0.060155999,-0.375519,-1.4622918,0.17525293
3620789911744,0.61203334,0,,0.00098719311,-0.0021219014,0.0016712575,9.6766071,-0.41387901,0.99930501,0.73942798,-0.081008002,-0.665631,-0.060155999,-0.375519,-1.4622918,0.17525293
3620791707232,0.61382883,0,,0.0032929477,0.0041458201,1.850049e-06,9.7142305,-0.42411399,1.003922,0.73943198,-0.081005998,-0.665627,-0.060152002,-0.37550821,-1.4622809,0.17525115
3620793820736,0.61594234,0,,0.0032929477,0.0041458201,1.850049e-06,9.7142305,-0.42411399,1.003922,0.73943198,-0.081005998,-0.665627,-0.060152002,-0.37550821,-1.4622809,0.17525115
3620795834624,0.61795622,0,,0.0035760051,-0.0022868525,-0.0012573876,9.7650671,-0.43612301,0.99614,0.73943698,-0.080996998,-0.66562301,-0.060144998,-0.3754427,-1.4622717,0.17520709
3620797771936,0.61989354,0,,0.0035760051,-0.0022868525,-0.0012573876,9.7650671,-0.43612301,0.99614,0.73943698,-0.080996998,-0.66562301,-0.060144998,-0.3754427,-1.4622717,0.17520709
3620799772000,0.6218936,0,,0.0035760051,-0.0022868525,-0.0012573876,9.7650671,-0.43612301,0.99614,0.73943698,-0.080996998,-0.66562301,-0.060144998,-0.3754427,-1.4622717,0.17520709
3620801717216,0.62383882,0,,-0.0020046329,-0.0055630101,-0.0022266388,9.783783,-0.41352901,0.97782099,0.73943001,-0.080998003,-0.66562998,-0.060146999,-0.3754678,-1.4622898,0.17522868
3620803703776,0.62582538,0,,-0.0020046329,-0.0055630101,-0.0022266388,9.783783,-0.41352901,0.97782099,0.73943001,-0.080998003,-0.66562998,-0.060146999,-0.3754678,-1.4622898,0.17522868
3620805707808,0.62782941,0,,0.0010978295,-0.0041579851,-0.0010681589,9.8236504,-0.35080701,0.98867798,0.73942202,-0.080999002,-0.66563797,-0.060153998,-0.37547116,-1.4623113,0.17522074
3620807699808,0.62982141,0,,0.0010978295,-0.0041579851,-0.0010681589,9.8236504,-0.35080701,0.98867798,0.73942202,-0.080999002,-0.66563797,-0.060153998,-0.37547116,-1.4623113,0.17522074
3620809896384,0.63201798,0,,0.0010978295,-0.0041579851,-0.0010681589,9.8236504,-0.35080701,0.98867798,0.73942202,-0.080999002,-0.66563797,-0.060153998,-0.37547116,-1.4623113,0.17522074
3620811729824,0.63385142,0,,-0.00056946602,-0.0017632363,0.0015948644,9.8504448,-0.356962,0.99747002,0.73941898,-0.080999002,-0.66564202,-0.060155999,-0.37546151,-1.4623234,0.17520869
3620813733024,0.63585462,0,,-0.00056946602,-0.0017632363,0.0015948644,9.8504448,-0.356962,0.99747002,0.73941898,-0.080999002,-0.66564202,-0.060155999,-0.37546151,-1.4623234,0.17520869
3620815726144,0.63784774,0,,-0.00020671679,-0.0036283999,0.00075584972,9.8682566,-0.418475,0.97937298,0.73941398,-0.081001997,-0.66564602,-0.060157999,-0.37550052,-1.4623359,0.17524024
3620817737120,0.63985872,0,,-0.00020671679,-0.0036283999,0.00075584972,9.8682566,-0.418475,0.97937298,0.73941398,-0.081001997,-0.66564602,-0.060157999,-0.37550052,-1.4623359,0.17524024
3620819724192,0.64184579,0,,-0.00020671679,-0.0036283999,0.00075584972,9.8682566,-0.418475,0.97937298,0.73941398,-0.081001997,-0.66564602,-0.060157999,-0.37550052,-1.4623359,0.17524024
3620821751200,0.6438728,0,,0.002461403,-0.00083301072,0.0023953248,9.8210106,-0.379053,0.96979702,0.739411,-0.081005998,-0.665649,-0.060157001,-0.37560342,-1.4623415,0.17533855
3620823722560,0.64584416,0,,0.002461403,-0.00083301072,0.0023953248,9.8210106,-0.379053,0.96979702,0.739411,-0.081005998,-0.665649,-0.060157001,-0.37560342,-1.4623415,0.17533855
3620825730688,0.64785229,0,,0.0035162101,0.00040699333,-0.00035657077,9.7387733,-0.353434,0.96547902,0.73941201,-0.081001997,-0.665649,-0.060151,-0.37561034,-1.4623399,0.17536077
3620827809376,0.64993098,0,,0.0035162101,0.00040699333,-0.00035657077,9.7387733,-0.353434,0.96547902,0.73941201,-0.081001997,-0.665649,-0.060151,-0.37561034,-1.4623399,0.17536077
3620830011584,0.65213318,0,,0.0035162101,0.00040699333,-0.00035657077,9.7387733,-0.353434,0.96547902,0.73941201,-0.081001997,-0.665649,-0.060151,-0.37561034,-1.4623399,0.17536077
3620831744416,0.65386602,0,,0.0035162101,0.00040699333,-0.00035657077,9.7387733,-0.353434,0.96547902,0.73941201,-0.081001997,-0.665649,-0.060151,-0.37561034,-1.4623399,0.17536077
3620833777728,0.65589933,0,,0.0035162101,0.00040699333,-0.00035657077,9.7387733,-0.353434,0.96547902,0.73941201,-0.081001997,-0.665649,-0.060151,-0.37561034,-1.4623399,0.17536077
3620835749952,0.65787155,0,,-0.0028914694,-0.0019985067,-0.001344846,9.6874895,-0.33160901,0.97325701,0.73940301,-0.081,-0.66565901,-0.060164999,-0.37548857,-1.4623717,0.1752228
3620837746656,0.65986826,0,,-0.0028914694,-0.0019985067,-0.001344846,9.6874895,-0.33160901,0.97325701,0.73940301,-0.081,-0.66565901,-0.060164999,-0.37548857,-1.4623717,0.1752228
3620839731904,0.6618535,0,,-0.0028914694,-0.0019985067,-0.001344846,9.6874895,-0.33160901,0.97325701,0.73940301,-0.081,-0.66565901,-0.060164999,-0.37548857,-1.4623717,0.1752228
3620841740992,0.66386259,0,,0.0052809127,-5.4733524e-05,0.00084346525,9.7009468,-0.34943199,0.965922,0.73940098,-0.080995999,-0.66566002,-0.060169999,-0.37538481,-1.4623789,0.17511687
3620843733568,0.66585517,0,,0.0052809127,-5.4733524e-05,0.00084346525,9.7009468,-0.34943199,0.965922,0.73940098,-0.080995999,-0.66566002,-0.060169999,-0.37538481,-1.4623789,0.17511687
3620845737376,0.66785898,0,,-0.0013348278,-0.0029030412,0.0050974433,9.735775,-0.370803,0.97039199,0.73939997,-0.080995999,-0.665663,-0.060164001,-0.37548085,-1.4623812,0.17522097
3620847720384,0.66984198,0,,-0.0013348278,-0.0029030412,0.0050974433,9.735775,-0.370803,0.97039199,0.73939997,-0.080995999,-0.665663,-0.060164001,-0.37548085,-1.4623812,0.17522097
3620849917056,0.67203866,0,,-0.0013348278,-0.0029030412,0.0050974433,9.735775,-0.370803,0.97039199,0.73939997,-0.080995999,-0.665663,-0.060164001,-0.37548085,-1.4623812,0.17522097
3620851717504,0.6738391,0,,-0.0074448939,-0.0061571551,0.0031456942,9.8194818,-0.42166299,0.999035,0.73939097,-0.081014,-0.66566902,-0.060166001,-0.3757438,-1.4623961,0.17545478
3620853743200,0.6758648,0,,-0.0074448939,-0.0061571551,0.0031456942,9.8194818,-0.42166299,0.999035,0.73939097,-0.081014,-0.66566902,-0.060166001,-0.3757438,-1.4623961,0.17545478
3620855706208,0.67782781,0,,-0.0048152236,-0.0058134996,0.0007807032,9.8438625,-0.42149001,1.011899,0.73938102,-0.081032999,-0.66567802,-0.060171999,-0.37598864,-1.4624175,0.17566497
3620857714720,0.67983632,0,,-0.0048152236,-0.0058134996,0.0007807032,9.8438625,-0.42149001,1.011899,0.73938102,-0.081032999,-0.66567802,-0.060171999,-0.37598864,-1.4624175,0.17566497
3620859701088,0.68182269,0,,-0.0048152236,-0.0058134996,0.0007807032,9.8438625,-0.42149001,1.011899,0.73938102,-0.081032999,-0.66567802,-0.060171999,-0.37598864,-1.4624175,0.17566497
3620861731904,0.6838535,0,,-0.0016832478,-0.0030554257,-0.0011100293,9.8382072,-0.41412801,0.98664397,0.739375,-0.081037,-0.66568297,-0.060176998,-0.37602869,-1.4624324,0.17569247
3620863702176,0.68582378,0,,-0.0016832478,-0.0030554257,-0.0011100293,9.8382072,-0.41412801,0.98664397,0.739375,-0.081037,-0.66568297,-0.060176998,-0.37602869,-1.4624324,0.17569247
3620865713024,0.68783462,0,,-0.0022810058,-0.0037894239,0.00043771114,9.8084955,-0.44218701,0.994057,0.73936898,-0.081044003,-0.66568899,-0.060187001,-0.37604024,-1.4624512,0.17568013
3620867697472,0.68981907,0,,-0.0022810058,-0.0037894239,0.00043771114,9.8084955,-0.44218701,0.994057,0.73936898,-0.081044003,-0.66568899,-0.060187001,-0.37604024,-1.4624512,0.17568013
3620869918080,0.69203968,0,,-0.0022810058,-0.0037894239,0.00043771114,9.8084955,-0.44218701,0.994057,0.73936898,-0.081044003,-0.66568899,-0.060187001,-0.37604024,-1.4624512,0.17568013
3620871721728,0.69384333,0,,0.0054180431,0.001547182,-0.0013251936,9.770277,-0.41665199,1.0078549,0.73936802,-0.081042998,-0.66569,-0.060185,-0.3760517,-1.4624516,0.17569564
3620873735232,0.69585683,0,,0.0054180431,0.001547182,-0.0013251936,9.770277,-0.41665199,1.0078549,0.73936802,-0.081042998,-0.66569,-0.060185,-0.3760517,-1.4624516,0.17569564
3620875724768,0.69784637,0,,0.0013603271,-0.00088540555,-0.0022104419,9.7562704,-0.42570701,0.99716699,0.739371,-0.081035003,-0.66568702,-0.060185,-0.37592836,-1.4624472,0.17558288
3620877725376,0.69984698,0,,0.0013603271,-0.00088540555,-0.0022104419,9.7562704,-0.42570701,0.99716699,0.739371,-0.081035003,-0.66568702,-0.060185,-0.37592836,-1.4624472,0.17558288
3620879717536,0.70183914,0,,0.0013603271,-0.00088540555,-0.0022104419,9.7562704,-0.42570701,0.99716699,0.739371,-0.081035003,-0.66568702,-0.060185,-0.37592836,-1.4624472,0.17558288
3620881727776,0.70384938,0,,0.00021399481,-0.0012240866,-0.0015940616,9.7019606,-0.42815,0.98575902,0.739371,-0.081032,-0.66568798,-0.060185999,-0.37587519,-1.4624496,0.17553224
3620883714816,0.70583642,0,,0.00021399481,-0.0012240866,-0.0015940616,9.7019606,-0.42815,0.98575902,0.739371,-0.081032,-0.66568798,-0.060185999,-0.37587519,-1.4624496,0.17553224
3620885725696,0.7078473,0,,0.0034266223,-0.00072853535,0.0016425469,9.708848,-0.38337901,1.0075181,0.73937201,-0.081029996,-0.66568702,-0.060183998,-0.37587226,-1.4624472,0.17553544
3620887713728,0.70983533,0,,0.0034266223,-0.00072853535,0.0016425469,9.708848,-0.38337901,1.0075181,0.73937201,-0.081029996,-0.66568702,-0.060183998,-0.37587226,-1.4624472,0.17553544
3620889940160,0.71206176,0,,0.0034266223,-0.00072853535,0.0016425469,9.708848,-0.38337901,1.0075181,0.73937201,-0.081029996,-0.66568702,-0.060183998,-0.37587226,-1.4624472,0.17553544
3620891733824,0.71385542,0,,0.0028519379,-0.0012701983,0.001297757,9.7404699,-0.40856498,1.000821,0.73937297,-0.081028,-0.66568702,-0.060178999,-0.3758971,-1.4624451,0.17557144
3620893732192,0.71585379,0,,0.0028519379,-0.0012701983,0.001297757,9.7404699,-0.40856498,1.000821,0.73937297,-0.081028,-0.66568702,-0.060178999,-0.3758971,-1.4624451,0.17557144
3620895827456,0.71794906,0,,0.0054581159,0.0014976322,0.0031820668,9.7861996,-0.405265,0.99004102,0.73937601,-0.081027001,-0.665685,-0.060169999,-0.37596877,-1.4624351,0.17565598
3620897739680,0.71986128,0,,0.0054581159,0.0014976322,0.0031820668,9.7861996,-0.405265,0.99004102,0.73937601,-0.081027001,-0.665685,-0.060169999,-0.37596877,-1.4624351,0.17565598
3620899740448,0.72186205,0,,0.0054581159,0.0014976322,0.0031820668,9.7861996,-0.405265,0.99004102,0.73937601,-0.081027001,-0.665685,-0.060169999,-0.37596877,-1.4624351,0.17565598
3620901728096,0.7238497,0,,-0.00018917624,0.0025787938,0.0023607672,9.7802391,-0.38935,0.97819698,0.73938197,-0.081028,-0.66567802,-0.060162,-0.37603642,-1.4624147,0.17573443
3620903710304,0.7258319,0,,-0.00018917624,0.0025787938,0.0023607672,9.7802391,-0.38935,0.97819698,0.73938197,-0.081028,-0.66567802,-0.060162,-0.37603642,-1.4624147,0.17573443
3620905719360,0.72784096,0,,0.0010235832,-0.0030202749,-0.00098761203,9.822135,-0.38299099,0.986453,0.73938197,-0.081026003,-0.66567898,-0.060164001,-0.37599896,-1.4624181,0.17569618
3620907704672,0.72982627,0,,0.0010235832,-0.0030202749,-0.00098761203,9.822135,-0.38299099,0.986453,0.73938197,-0.081026003,-0.66567898,-0.060164001,-0.37599896,-1.4624181,0.17569618
3620909933088,0.73205469,0,,0.0010235832,-0.0030202749,-0.00098761203,9.822135,-0.38299099,0.986453,0.73938197,-0.081026003,-0.66567898,-0.060164001,-0.37599896,-1.4624181,0.17569618
3620911709696,0.7338313,0,,0.00066334726,-0.0016794779,-0.0038448556,9.8398104,-0.39938599,0.97589999,0.73937798,-0.081023999,-0.66568297,-0.060169999,-0.37592283,-1.4624319,0.17561465
3620913694848,0.73581645,0,,0.00066334726,-0.0016794779,-0.0038448556,9.8398104,-0.39938599,0.97589999,0.73937798,-0.081023999,-0.66568297,-0.060169999,-0.37592283,-1.4624319,0.17561465
3620915703328,0.73782493,0,,0.0051209878,-0.0041297457,-0.0037778175,9.7977762,-0.37237501,0.97377402,0.73937201,-0.081014,-0.66569,-0.060175002,-0.37577406,-1.462456,0.1754744
3620917714336,0.73983594,0,,0.0051209878,-0.0041297457,-0.0037778175,9.7977762,-0.37237501,0.97377402,0.73937201,-0.081014,-0.66569,-0.060175002,-0.37577406,-1.462456,0.1754744
3620919697216,0.74181882,0,,0.0051209878,-0.0041297457,-0.0037778175,9.7977762,-0.37237501,0.97377402,0.73937201,-0.081014,-0.66569,-0.060175002,-0.37577406,-1.462456,0.1754744
3620921706976,0.74382858,0,,0.007131974,-0.0028905095,0.00029504792,9.747324,-0.36807901,0.96933502,0.73936701,-0.081,-0.66569799,-0.060171001,-0.37568178,-1.4624753,0.17540746
3620923696768,0.74581837,0,,0.007131974,-0.0028905095,0.00029504792,9.747324,-0.36807901,0.96933502,0.73936701,-0.081,-0.66569799,-0.060171001,-0.37568178,-1.4624753,0.17540746
3620925772160,0.74789376,0,,0.0035970362,-0.0026213973,0.0014560933,9.7326593,-0.36821401,0.96329701,0.73936301,-0.080990002,-0.66570401,-0.060162,-0.37568904,-1.4624892,0.17544008
3620927727680,0.74984928,0,,0.0035970362,-0.0026213973,0.0014560933,9.7326593,-0.36821401,0.96329701,0.73936301,-0.080990002,-0.66570401,-0.060162,-0.37568904,-1.4624892,0.17544008
3620929922016,0.75204362,0,,0.0035970362,-0.0026213973,0.0014560933,9.7326593,-0.36821401,0.96329701,0.73936301,-0.080990002,-0.66570401,-0.060162,-0.37568904,-1.4624892,0.17544008
3620931722144,0.75384374,0,,0.00068397708,0.00077342522,0.00078815576,9.7154036,-0.343151,0.97977298,0.739362,-0.080987997,-0.66570598,-0.060159001,-0.3757205,-1.4624941,0.17547956
3620933728864,0.75585046,0,,0.00068397708,0.00077342522,0.00078815576,9.7154036,-0.343151,0.97977298,0.739362,-0.080987997,-0.66570598,-0.060159001,-0.3757205,-1.4624941,0.17547956
3620935720384,0.75784198,0,,-0.0021306281,0.0012690463,0.0001844813,9.7084789,-0.35701299,0.97888398,0.73936397,-0.080991,-0.665703,-0.060164001,-0.37566674,-1.4624882,0.17541438
3620937726784,0.75984838,0,,-0.0021306281,0.0012690463,0.0001844813,9.7084789,-0.35701299,0.97888398,0.73936397,-0.080991,-0.665703,-0.060164001,-0.37566674,-1.4624882,0.17541438
3620939716384,0.76183798,0,,-0.0021306281,0.0012690463,0.0001844813,9.7084789,-0.35701299,0.97888398,0.73936397,-0.080991,-0.665703,-0.060164001,-0.37566674,-1.4624882,0.17541438
3620941724128,0.76384573,0,,-0.0019336851,-0.0010026917,0.00084386667,9.7480202,-0.38407001,0.97496897,0.73936301,-0.080996998,-0.665703,-0.060171001,-0.37567326,-1.4624902,0.17540171
3620943716928,0.76583853,0,,-0.0019336851,-0.0010026917,0.00084386667,9.7480202,-0.38407001,0.97496897,0.73936301,-0.080996998,-0.665703,-0.060171001,-0.37567326,-1.4624902,0.17540171
3620945723552,0.76784515,0,,0.0036557493,0.002332493,0.0014335436,9.766016,-0.37488201,0.98620301,0.73936599,-0.080996998,-0.66570002,-0.060169,-0.37568581,-1.4624814,0.17541743
3620947710912,0.76983251,0,,0.0036557493,0.002332493,0.0014335436,9.766016,-0.37488201,0.98620301,0.73936599,-0.080996998,-0.66570002,-0.060169,-0.37568581,-1.4624814,0.17541743
3620949890240,0.77201184,0,,0.0036557493,0.002332493,0.0014335436,9.766016,-0.37488201,0.98620301,0.73936599,-0.080996998,-0.66570002,-0.060169,-0.37568581,-1.4624814,0.17541743
3620951712576,0.77383418,0,,0.00022156954,0.0007891681,0.0019074529,9.7797432,-0.40542099,0.99099702,0.73936802,-0.080999002,-0.66569698,-0.060167,-0.37571118,-1.4624726,0.17544431
3620953722144,0.77584374,0,,0.00022156954,0.0007891681,0.0019074529,9.7797432,-0.40542099,0.99099702,0.73936802,-0.080999002,-0.66569698,-0.060167,-0.37571118,-1.4624726,0.17544431
3620955716256,0.77783786,0,,0.0035846968,0.004242529,0.0013057856,9.7988272,-0.417137,0.99129802,0.73937398,-0.080998003,-0.66569102,-0.060160998,-0.37571477,-1.4624523,0.17545698
3620957716320,0.77983792,0,,0.0035846968,0.004242529,0.0013057856,9.7988272,-0.417137,0.99129802,0.73937398,-0.080998003,-0.66569102,-0.060160998,-0.37571477,-1.4624523,0.17545698
3620959714080,0.78183568,0,,0.0035846968,0.004242529,0.0013057856,9.7988272,-0.417137,0.99129802,0.73937398,-0.080998003,-0.66569102,-0.060160998,-0.37571477,-1.4624523,0.17545698
3620961715232,0.78383683,0,,0.0015334114,0.0046427153,-0.00012252211,9.7924328,-0.399165,1.004077,0.739384,-0.080996998,-0.665681,-0.060155999,-0.37570039,-1.4624252,0.17545002
3620963706528,0.78582813,0,,0.0015334114,0.0046427153,-0.00012252211,9.7924328,-0.399165,1.004077,0.739384,-0.080996998,-0.665681,-0.060155999,-0.37570039,-1.4624252,0.17545002
3620965707488,0.78782909,0,,0.0037279883,0.0039777276,0.0012520643,9.7913189,-0.445611,0.99798501,0.73939198,-0.080994003,-0.665672,-0.060155999,-0.37559693,-1.4624015,0.17535166
3620967699072,0.78982067,0,,0.0037279883,0.0039777276,0.0012520643,9.7913189,-0.445611,0.99798501,0.73939198,-0.080994003,-0.665672,-0.060155999,-0.37559693,-1.4624015,0.17535166
3620969888224,0.79200982,0,,0.0037279883,0.0039777276,0.0012520643,9.7913189,-0.445611,0.99798501,0.73939198,-0.080994003,-0.665672,-0.060155999,-0.37559693,-1.4624015,0.17535166
3620971695584,0.79381718,0,,0.0019542976,0.0031309113,-0.0030590387,9.7694206,-0.44069698,0.98465902,0.73940098,-0.080989003,-0.665663,-0.060153,-0.37549949,-1.4623789,0.17526533
3620973694784,0.79581638,0,,0.0019542976,0.0031309113,-0.0030590387,9.7694206,-0.44069698,0.98465902,0.73940098,-0.080989003,-0.665663,-0.060153,-0.37549949,-1.4623789,0.17526533
3620975733152,0.79785475,0,,-0.0030996524,-0.0034440408,0.00056932643,9.743825,-0.39201799,1.011929,0.739402,-0.080991,-0.66566199,-0.060155999,-0.37549173,-1.4623773,0.17525051
3620977694720,0.79981632,0,,-0.0030996524,-0.0034440408,0.00056932643,9.743825,-0.39201799,1.011929,0.739402,-0.080991,-0.66566199,-0.060155999,-0.37549173,-1.4623773,0.17525051
3620979725184,0.80184678,0,,-0.0030996524,-0.0034440408,0.00056932643,9.743825,-0.39201799,1.011929,0.739402,-0.080991,-0.66566199,-0.060155999,-0.37549173,-1.4623773,0.17525051
3620981730816,0.80385242,0,,-0.003525251,-0.0027913923,0.001175043,9.7135954,-0.40863401,0.99003297,0.739398,-0.081001997,-0.66566402,-0.060162999,-0.37557256,-1.462384,0.17530619
3620983720416,0.80584202,0,,-0.003525251,-0.0027913923,0.001175043,9.7135954,-0.40863401,0.99003297,0.739398,-0.081001997,-0.66566402,-0.060162999,-0.37557256,-1.462384,0.17530619
3620985727104,0.8078487,0,,0.00021354103,-0.0052607366,0.0019339296,9.7630892,-0.42598301,0.986808,0.73939198,-0.081009999,-0.66566998,-0.060162999,-0.37572732,-1.4623971,0.17544965
3620987718336,0.80983994,0,,0.00021354103,-0.0052607366,0.0019339296,9.7630892,-0.42598301,0.986808,0.73939198,-0.081009999,-0.66566998,-0.060162999,-0.37572732,-1.4623971,0.17544965
3620989761536,0.81188314,0,,0.00021354103,-0.0052607366,0.0019339296,9.7630892,-0.42598301,0.986808,0.73939198,-0.081009999,-0.66566998,-0.060162999,-0.37572732,-1.4623971,0.17544965
3620991716992,0.81383859,0,,0.0019295836,-0.0013706943,-0.0018621616,9.7805653,-0.413912,0.99002302,0.73938698,-0.081010997,-0.66567498,-0.060157999,-0.37582689,-1.4624082,0.17555355
3620993728160,0.81584976,0,,0.0019295836,-0.0013706943,-0.0018621616,9.7805653,-0.413912,0.99002302,0.73938698,-0.081010997,-0.66567498,-0.060157999,-0.37582689,-1.4624082,0.17555355
3620995727840,0.81784944,0,,0.0018525448,6.5973445e-06,8.1262531e-05,9.8550711,-0.413569,0.99141997,0.73938799,-0.081005998,-0.66567498,-0.060157999,-0.37576507,-1.4624082,0.17549989
3620997728992,0.81985059,0,,0.0018525448,6.5973445e-06,8.1262531e-05,9.8550711,-0.413569,0.99141997,0.73938799,-0.081005998,-0.66567498,-0.060157999,-0.37576507,-1.4624082,0.17549989
3620999714144,0.82183574,0,,0.0018525448,6.5973445e-06,8.1262531e-05,9.8550711,-0.413569,0.99141997,0.73938799,-0.081005998,-0.66567498,-0.060157999,-0.37576507,-1.4624082,0.17549989
3621001721984,0.82384358,0,,-0.0040422874,-0.00018510962,-0.00049689524,9.8414936,-0.38562399,0.990242,0.73938698,-0.081012003,-0.66567498,-0.060162,-0.37580192,-1.4624114,0.17552249
3621003710848,0.82583245,0,,-0.0040422874,-0.00018510962,-0.00049689524,9.8414936,-0.38562399,0.990242,0.73938698,-0.081012003,-0.66567498,-0.060162,-0.37580192,-1.4624114,0.17552249
3621005715424,0.82783702,0,,-0.0019488696,-0.0030127525,-0.00045294785,9.7572451,-0.36484599,0.98849201,0.73938602,-0.081015997,-0.66567498,-0.060169,-0.37576674,-1.4624121,0.17547102
3621007707616,0.82982922,0,,-0.0019488696,-0.0030127525,-0.00045294785,9.7572451,-0.36484599,0.98849201,0.73938602,-0.081015997,-0.66567498,-0.060169,-0.37576674,-1.4624121,0.17547102
3621009904896,0.8320265,0,,-0.0019488696,-0.0030127525,-0.00045294785,9.7572451,-0.36484599,0.98849201,0.73938602,-0.081015997,-0.66567498,-0.060169,-0.37576674,-1.4624121,0.17547102
3621011703872,0.83382547,0,,-0.00090997978,-0.0017579305,0.00025694737,9.6747465,-0.31920001,0.96870798,0.73938197,-0.081019998,-0.66567898,-0.060174,-0.37578029,-1.4624231,0.17547221
3621013709696,0.8358313,0,,-0.00090997978,-0.0017579305,0.00025694737,9.6747465,-0.31920001,0.96870798,0.73938197,-0.081019998,-0.66567898,-0.060174,-0.37578029,-1.4624231,0.17547221
3621015704896,0.8378265,0,,0.0065351409,-0.00060562923,0.0033203668,9.6570396,-0.29324201,0.98169601,0.73938102,-0.081015997,-0.66567999,-0.060174,-0.37574154,-1.4624268,0.17543985
3621017707808,0.83982941,0,,0.0065351409,-0.00060562923,0.0033203668,9.6570396,-0.29324201,0.98169601,0.73938102,-0.081015997,-0.66567999,-0.060174,-0.37574154,-1.4624268,0.17543985
3621019700288,0.84182189,0,,0.0065351409,-0.00060562923,0.0033203668,9.6570396,-0.29324201,0.98169601,0.73938102,-0.081015997,-0.66567999,-0.060174,-0.37574154,-1.4624268,0.17543985
3621021704416,0.84382602,0,,7.522369e-06,-0.0022291519,0.0026372798,9.6494293,-0.36790699,0.95181,0.73938102,-0.081013002,-0.665681,-0.060167998,-0.37578521,-1.4624263,0.17549564
3621023696896,0.8458185,0,,7.522369e-06,-0.0022291519,0.0026372798,9.6494293,-0.36790699,0.95181,0.73938102,-0.081013002,-0.665681,-0.060167998,-0.37578521,-1.4624263,0.17549564
3621025705568,0.84782717,0,,-0.0068344126,-0.0073927781,0.0044943278,9.7173967,-0.398146,0.97174299,0.73937297,-0.081027001,-0.66568798,-0.060167998,-0.37601884,-1.4624424,0.17571064
3621027695776,0.84981738,0,,-0.0068344126,-0.0073927781,0.0044943278,9.7173967,-0.398146,0.97174299,0.73937297,-0.081027001,-0.66568798,-0.060167998,-0.37601884,-1.4624424,0.17571064
3621029973408,0.85209501,0,,-0.0068344126,-0.0073927781,0.0044943278,9.7173967,-0.398146,0.97174299,0.73937297,-0.081027001,-0.66568798,-0.060167998,-0.37601884,-1.4624424,0.17571064
3621031722624,0.85384422,0,,-0.0070811846,-0.0029537603,0.0024056222,9.7702227,-0.42623001,0.96719199,0.73936397,-0.081049003,-0.66569501,-0.060176,-0.3762753,-1.4624589,0.17592228
3621033717312,0.85583891,0,,-0.0070811846,-0.0029537603,0.0024056222,9.7702227,-0.42623001,0.96719199,0.73936397,-0.081049003,-0.66569501,-0.060176,-0.3762753,-1.4624589,0.17592228
3621035714048,0.85783565,0,,4.00204e-05,-0.0036946351,0.00027590164,9.8373194,-0.41310099,0.99266702,0.73935801,-0.081063002,-0.66569901,-0.060180001,-0.37643679,-1.4624683,0.17605897
3621037710336,0.85983194,0,,4.00204e-05,-0.0036946351,0.00027590164,9.8373194,-0.41310099,0.99266702,0.73935801,-0.081063002,-0.66569901,-0.060180001,-0.37643679,-1.4624683,0.17605897
3621039698464,0.86182006,0,,4.00204e-05,-0.0036946351,0.00027590164,9.8373194,-0.41310099,0.99266702,0.73935801,-0.081063002,-0.66569901,-0.060180001,-0.37643679,-1.4624683,0.17605897
3621041745184,0.86386678,0,,-0.0011552684,-0.006132511,-0.0022448947,9.8261871,-0.41602501,0.984541,0.73935002,-0.081067003,-0.66570699,-0.060183998,-0.37651978,-1.4624902,0.17613091
3621043741536,0.86586314,0,,-0.0011552684,-0.006132511,-0.0022448947,9.8261871,-0.41602501,0.984541,0.73935002,-0.081067003,-0.66570699,-0.060183998,-0.37651978,-1.4624902,0.17613091
3621045740576,0.86786218,0,,-0.00095549792,-0.002010916,-0.00075480253,9.8840523,-0.40487701,0.99589002,0.73934299,-0.081069,-0.66571403,-0.060187001,-0.37654871,-1.4625113,0.17615238
3621047734656,0.86985626,0,,-0.00095549792,-0.002010916,-0.00075480253,9.8840523,-0.40487701,0.99589002,0.73934299,-0.081069,-0.66571403,-0.060187001,-0.37654871,-1.4625113,0.17615238
3621049902368,0.87202397,0,,-0.00095549792,-0.002010916,-0.00075480253,9.8840523,-0.40487701,0.99589002,0.73934299,-0.081069,-0.66571403,-0.060187001,-0.37654871,-1.4625113,0.17615238
3621051724064,0.87384566,0,,-0.0040754835,-0.00098262036,-0.0013538869,9.8654099,-0.36547801,1.009686,0.73934001,-0.081074998,-0.66571599,-0.060196001,-0.37653652,-1.4625191,0.17611949
3621053733120,0.87585472,0,,-0.0040754835,-0.00098262036,-0.0013538869,9.8654099,-0.36547801,1.009686,0.73934001,-0.081074998,-0.66571599,-0.060196001,-0.37653652,-1.4625191,0.17611949
3621055744896,0.8778665,0,,0.0012663934,0.0045977557,0.0015899425,9.8142529,-0.444967,0.97031099,0.73934603,-0.081075996,-0.66570902,-0.060203999,-0.37642041,-1.4625018,0.17599022
3621057732416,0.87985402,0,,0.0012663934,0.0045977557,0.0015899425,9.8142529,-0.444967,0.97031099,0.73934603,-0.081075996,-0.66570902,-0.060203999,-0.37642041,-1.4625018,0.17599022
3621059718336,0.88183994,0,,0.0012663934,0.0045977557,0.0015899425,9.8142529,-0.444967,0.97031099,0.73934603,-0.081075996,-0.66570902,-0.060203999,-0.37642041,-1.4625018,0.17599022
3621061764928,0.88388653,0,,-0.0062913009,-0.0049327715,0.00031190779,9.7866344,-0.40348601,1.002143,0.73934603,-0.081086002,-0.66570801,-0.060203001,-0.37655973,-1.4624981,0.17611586
3621063789760,0.88591136,0,,-0.0062913009,-0.0049327715,0.00031190779,9.7866344,-0.40348601,1.002143,0.73934603,-0.081086002,-0.66570801,-0.060203001,-0.37655973,-1.4624981,0.17611586
3621065777600,0.8878992,0,,-0.0053183847,-0.0052198259,-0.00016446237,9.7265825,-0.37418401,1.006808,0.73933601,-0.081098996,-0.66571599,-0.060215998,-0.37663992,-1.4625211,0.17616103
3621067714976,0.88983658,0,,-0.0053183847,-0.0052198259,-0.00016446237,9.7265825,-0.37418401,1.006808,0.73933601,-0.081098996,-0.66571599,-0.060215998,-0.37663992,-1.4625211,0.17616103
3621069925440,0.89204704,0,,-0.0053183847,-0.0052198259,-0.00016446237,9.7265825,-0.37418401,1.006808,0.73933601,-0.081098996,-0.66571599,-0.060215998,-0.37663992,-1.4625211,0.17616103
3621071707648,0.89382925,0,,0.00041320671,-0.0052250446,0.00089695961,9.6837168,-0.44991699,0.972372,0.73932803,-0.081106,-0.66572303,-0.060221002,-0.37671998,-1.4625416,0.17622252
3621073707968,0.89582957,0,,0.00041320671,-0.0052250446,0.00089695961,9.6837168,-0.44991699,0.972372,0.73932803,-0.081106,-0.66572303,-0.060221002,-0.37671998,-1.4625416,0.17622252
3621075724064,0.89784566,0,,0.0011260865,-0.005734384,-0.0016310801,9.6403513,-0.40004399,0.984065,0.73931998,-0.081109002,-0.66573298,-0.060217001,-0.37687734,-1.4625636,0.17638141
3621077714464,0.89983606,0,,0.0011260865,-0.005734384,-0.0016310801,9.6403513,-0.40004399,0.984065,0.73931998,-0.081109002,-0.66573298,-0.060217001,-0.37687734,-1.4625636,0.17638141
3621079696096,0.9018177,0,,0.0011260865,-0.005734384,-0.0016310801,9.6403513,-0.40004399,0.984065,0.73931998,-0.081109002,-0.66573298,-0.060217001,-0.37687734,-1.4625636,0.17638141
3621081694560,0.90381616,0,,0.0018576062,-0.0050069306,0.00026199137,9.6524591,-0.35378999,0.990722,0.73931199,-0.081109002,-0.66574103,-0.060217001,-0.37693673,-1.4625862,0.17644096
3621083692960,0.90581456,0,,0.0018576062,-0.0050069306,0.00026199137,9.6524591,-0.35378999,0.990722,0.73931199,-0.081109002,-0.66574103,-0.060217001,-0.37693673,-1.4625862,0.17644096
3621085691136,0.90781274,0,,-0.0017383654,-0.0033645932,0.00055244904,9.7056761,-0.37441301,0.988424,0.739308,-0.081107996,-0.66574597,-0.060219999,-0.37691746,-1.4625984,0.17642022
3621087687712,0.90980931,0,,-0.0017383654,-0.0033645932,0.00055244904,9.7056761,-0.37441301,0.988424,0.739308,-0.081107996,-0.66574597,-0.060219999,-0.37691746,-1.4625984,0.17642022
3621089887616,0.91200922,0,,-0.0017383654,-0.0033645932,0.00055244904,9.7056761,-0.37441301,0.988424,0.739308,-0.081107996,-0.66574597,-0.060219999,-0.37691746,-1.4625984,0.17642022
3621091707680,0.91382928,0,,-0.0018980804,-0.0025162586,0.0023808036,9.8074245,-0.40626201,0.98236799,0.73930299,-0.081116997,-0.66574901,-0.060222998,-0.37702052,-1.4626077,0.17650555
3621093716128,0.91583773,0,,-0.0018980804,-0.0025162586,0.0023808036,9.8074245,-0.40626201,0.98236799,0.73930299,-0.081116997,-0.66574901,-0.060222998,-0.37702052,-1.4626077,0.17650555
3621095744640,0.91786624,0,,2.5254914e-05,0.0033826401,0.0011465243,9.85501,-0.40777901,0.98713797,0.73930502,-0.081123002,-0.66574699,-0.060222,-0.37711303,-1.4625984,0.17659075
3621097754240,0.91987584,0,,2.5254914e-05,0.0033826401,0.0011465243,9.85501,-0.40777901,0.98713797,0.73930502,-0.081123002,-0.66574699,-0.060222,-0.37711303,-1.4625984,0.17659075
3621099712128,0.92183373,0,,2.5254914e-05,0.0033826401,0.0011465243,9.85501,-0.40777901,0.98713797,0.73930502,-0.081123002,-0.66574699,-0.060222,-0.37711303,-1.4625984,0.17659075
3621101749184,0.92387078,0,,-0.0017786475,0.0014772466,0.00077724747,9.9196863,-0.41538501,0.99651599,0.73931098,-0.081127003,-0.66574001,-0.060222998,-0.37710594,-1.4625797,0.17657673
3621103733600,0.9258552,0,,-0.0017786475,0.0014772466,0.00077724747,9.9196863,-0.41538501,0.99651599,0.73931098,-0.081127003,-0.66574001,-0.060222998,-0.37710594,-1.4625797,0.17657673
3621105759488,0.92788109,0,,0.0013373236,-6.7439524e-05,0.00027422614,9.9129248,-0.44632199,0.98113197,0.73931402,-0.081129998,-0.66573602,-0.060222998,-0.3771114,-1.4625697,0.17657847
3621107715520,0.92983712,0,,0.0013373236,-6.7439524e-05,0.00027422614,9.9129248,-0.44632199,0.98113197,0.73931402,-0.081129998,-0.66573602,-0.060222998,-0.3771114,-1.4625697,0.17657847
3621109875808,0.93199741,0,,0.0013373236,-6.7439524e-05,0.00027422614,9.9129248,-0.44632199,0.98113197,0.73931402,-0.081129998,-0.66573602,-0.060222998,-0.3771114,-1.4625697,0.17657847
3621111707264,0.93382886,0,,0.0026660079,0.0019742466,3.7507127e-05,9.8377447,-0.425486,0.97794497,0.739317,-0.081130996,-0.66573298,-0.060219001,-0.3771587,-1.4625608,0.17662852
3621113716832,0.93583843,0,,0.0026660079,0.0019742466,3.7507127e-05,9.8377447,-0.425486,0.97794497,0.739317,-0.081130996,-0.66573298,-0.060219001,-0.3771587,-1.4625608,0.17662852
3621115756096,0.9378777,0,,-0.00037727038,-0.0019689932,-0.0015552105,9.7848816,-0.391018,0.98377103,0.73931801,-0.081129,-0.66573101,-0.060221002,-0.37708946,-1.4625576,0.17656014
3621117780928,0.93990253,0,,-0.00037727038,-0.0019689932,-0.0015552105,9.7848816,-0.391018,0.98377103,0.73931801,-0.081129,-0.66573101,-0.060221002,-0.37708946,-1.4625576,0.17656014
3621119760160,0.94188176,0,,-0.00037727038,-0.0019689932,-0.0015552105,9.7848816,-0.391018,0.98377103,0.73931801,-0.081129,-0.66573101,-0.060221002,-0.37708946,-1.4625576,0.17656014
3621121758240,0.94387984,0,,0.0059555346,-0.0039462417,-0.0014216928,9.7652235,-0.391965,0.970945,0.73931402,-0.081123002,-0.66573697,-0.060219001,-0.37707052,-1.4625712,0.17655338
3621123706112,0.94582771,0,,0.0059555346,-0.0039462417,-0.0014216928,9.7652235,-0.391965,0.970945,0.73931402,-0.081123002,-0.66573697,-0.060219001,-0.37707052,-1.4625712,0.17655338
3621125714560,0.94783616,0,,0.0001502903,-0.0011573802,-0.0037715518,9.7089291,-0.365769,0.98338801,0.73931003,-0.081115998,-0.66574198,-0.060217999,-0.37703151,-1.4625869,0.17652465
3621127700416,0.94982202,0,,0.0001502903,-0.0011573802,-0.0037715518,9.7089291,-0.365769,0.98338801,0.73931003,-0.081115998,-0.66574198,-0.060217999,-0.37703151,-1.4625869,0.17652465
3621129899552,0.95202115,0,,0.0001502903,-0.0011573802,-0.0037715518,9.7089291,-0.365769,0.98338801,0.73931003,-0.081115998,-0.66574198,-0.060217999,-0.37703151,-1.4625869,0.17652465
3621131698816,0.95382042,0,,0.00031056389,0.0030819549,-0.0023501034,9.6331034,-0.311176,0.98460501,0.73931199,-0.081110999,-0.66574001,-0.060228001,-0.37682218,-1.4625856,0.17630977
3621133704672,0.95582627,0,,0.00031056389,0.0030819549,-0.0023501034,9.6331034,-0.311176,0.98460501,0.73931199,-0.081110999,-0.66574001,-0.060228001,-0.37682218,-1.4625856,0.17630977
3621135715616,0.95783722,0,,0.00031056389,0.0030819549,-0.0023501034,9.6331034,-0.311176,0.98460501,0.73931199,-0.081110999,-0.66574001,-0.060228001,-0.37682218,-1.4625856,0.17630977
3621137694720,0.95981632,0,,0.00031056389,0.0030819549,-0.0023501034,9.6331034,-0.311176,0.98460501,0.73931199,-0.081110999,-0.66574001,-0.060228001,-0.37682218,-1.4625856,0.17630977
3621139692000,0.9618136,0,,0.00031056389,0.0030819549,-0.0023501034,9.6331034,-0.311176,0.98460501,0.73931199,-0.081110999,-0.66574001,-0.060228001,-0.37682218,-1.4625856,0.17630977
3621141689312,0.96381091,0,,-0.0056134151,-0.0030046017,0.0022998378,9.7019043,-0.384157,0.981381,0.73931402,-0.081120998,-0.66573501,-0.060249001,-0.37669278,-1.4625813,0.1761355
3621143694848,0.96581645,0,,-0.0056134151,-0.0030046017,0.0022998378,9.7019043,-0.384157,0.981381,0.73931402,-0.081120998,-0.66573501,-0.060249001,-0.37669278,-1.4625813,0.1761355
3621145688832,0.96781043,0,,0.0012148539,-0.0030310087,0.0012127595,9.8224468,-0.444709,0.996692,0.73930901,-0.081129,-0.665739,-0.060252,-0.37678673,-1.4625924,0.17621393
3621147686656,0.96980826,0,,0.0012148539,-0.0030310087,0.0012127595,9.8224468,-0.444709,0.996692,0.73930901,-0.081129,-0.665739,-0.060252,-0.37678673,-1.4625924,0.17621393
3621149879296,0.9720009,0,,0.0012148539,-0.0030310087,0.0012127595,9.8224468,-0.444709,0.996692,0.73930901,-0.081129,-0.665739,-0.060252,-0.37678673,-1.4625924,0.17621393
3621151714688,0.97383629,0,,-0.0031841264,-0.0049788832,0.0040258985,9.8480778,-0.46317801,0.98378402,0.73930597,-0.081138,-0.66574198,-0.060245998,-0.37701023,-1.4625957,0.17643277
3621153706592,0.97582819,0,,-0.0031841264,-0.0049788832,0.0040258985,9.8480778,-0.46317801,0.98378402,0.73930597,-0.081138,-0.66574198,-0.060245998,-0.37701023,-1.4625957,0.17643277
3621155729376,0.97785098,0,,-0.003664441,-0.0030965281,-0.0019386769,9.8406515,-0.41865599,1.0033799,0.73929799,-0.081153996,-0.665748,-0.060249001,-0.37721989,-1.4626111,0.17661505
3621157756640,0.97987824,0,,-0.003664441,-0.0030965281,-0.0019386769,9.8406515,-0.41865599,1.0033799,0.73929799,-0.081153996,-0.665748,-0.060249001,-0.37721989,-1.4626111,0.17661505
3621159731584,0.98185318,0,,-0.003664441,-0.0030965281,-0.0019386769,9.8406515,-0.41865599,1.0033799,0.73929799,-0.081153996,-0.665748,-0.060249001,-0.37721989,-1.4626111,0.17661505
3621161739936,0.98386154,0,,0.00068390725,0.0004736998,-0.0029665537,9.8474703,-0.40150401,0.99808401,0.73929799,-0.081152,-0.66574901,-0.060256001,-0.37711849,-1.4626133,0.17650586
3621163722496,0.9858441,0,,0.00068390725,0.0004736998,-0.0029665537,9.8474703,-0.40150401,0.99808401,0.73929799,-0.081152,-0.66574901,-0.060256001,-0.37711849,-1.4626133,0.17650586
3621165736416,0.98785802,0,,-0.0027352974,-0.00053045793,-0.003448753,9.8172245,-0.416796,0.97322798,0.73929799,-0.081152,-0.665748,-0.060265999,-0.37699529,-1.462615,0.17636942
3621167719936,0.98984154,0,,-0.0027352974,-0.00053045793,-0.003448753,9.8172245,-0.416796,0.97322798,0.73929799,-0.081152,-0.665748,-0.060265999,-0.37699529,-1.462615,0.17636942
3621169906624,0.99202822,0,,-0.0027352974,-0.00053045793,-0.003448753,9.8172245,-0.416796,0.97322798,0.73929799,-0.081152,-0.665748,-0.060265999,-0.37699529,-1.462615,0.17636942
3621171723872,0.99384547,0,,0.0031351874,0.0027658408,0.0013972233,9.7625446,-0.36080399,1.0051529,0.73930001,-0.081153996,-0.66574401,-0.060268,-0.37697891,-1.4626073,0.176348
3621173711520,0.99583312,0,,0.0031351874,0.0027658408,0.0013972233,9.7625446,-0.36080399,1.0051529,0.73930001,-0.081153996,-0.66574401,-0.060268,-0.37697891,-1.4626073,0.176348
3621175714912,0.99783651,0,,0.0034339527,0.0010935535,-0.00056525978,9.8245697,-0.429934,1.0109071,0.73930597,-0.081147,-0.665739,-0.060265999,-0.37686919,-1.4625962,0.17625113
3621177749056,0.99987066,0,,0.0034339527,0.0010935535,-0.00056525978,9.8245697,-0.429934,1.0109071,0.73930597,-0.081147,-0.665739,-0.060265999,-0.37686919,-1.4625962,0.17625113
3621179714496,1.0018361,0,,0.0034339527,0.0010935535,-0.00056525978,9.8245697,-0.429934,1.0109071,0.73930597,-0.081147,-0.665739,-0.060265999,-0.37686919,-1.4625962,0.17625113
3621181730432,1.003852,0,,-0.00045884705,-0.0011626337,-0.00090011867,9.9288225,-0.55226499,0.982355,0.739308,-0.081143998,-0.66573697,-0.060263999,-0.3768352,-1.462589,0.17622358
3621183711488,1.0058331,0,,-0.00045884705,-0.0011626337,-0.00090011867,9.9288225,-0.55226499,0.982355,0.739308,-0.081143998,-0.66573697,-0.060263999,-0.3768352,-1.462589,0.17622358
3621185725504,1.0078471,0,,-0.0021837037,-0.0030424753,-0.0055773917,9.7883101,-0.44322801,1.00431,0.73930502,-0.081148997,-0.66574001,-0.060268,-0.37688926,-1.4625995,0.1762643
3621187708384,1.00983,0,,-0.0021837037,-0.0030424753,-0.0055773917,9.7883101,-0.44322801,1.00431,0.73930502,-0.081148997,-0.66574001,-0.060268,-0.37688926,-1.4625995,0.1762643
3621189903200,1.0120248,0,,-0.0021837037,-0.0030424753,-0.0055773917,9.7883101,-0.44322801,1.00431,0.73930502,-0.081148997,-0.66574001,-0.060268,-0.37688926,-1.4625995,0.1762643
3621191704832,1.0138264,0,,0.00083384848,0.0010371444,-0.009605995,9.608676,-0.33863398,0.98522097,0.73930401,-0.081142001,-0.66574001,-0.060283002,-0.37662457,-1.4626067,0.17598861
3621193824480,1.0159461,0,,0.00083384848,0.0010371444,-0.009605995,9.608676,-0.33863398,0.98522097,0.73930401,-0.081142001,-0.66574001,-0.060283002,-0.37662457,-1.4626067,0.17598861
3621195771104,1.0178927,0,,0.0039354382,-0.00017779669,-0.0060077023,9.6183872,-0.31347901,0.96674502,0.73930502,-0.081123002,-0.66574001,-0.060299002,-0.37616571,-1.4626189,0.17553442
3621197789344,1.0199109,0,,0.0039354382,-0.00017779669,-0.0060077023,9.6183872,-0.31347901,0.96674502,0.73930502,-0.081123002,-0.66574001,-0.060299002,-0.37616571,-1.4626189,0.17553442
3621199719488,1.0218411,0,,0.0039354382,-0.00017779669,-0.0060077023,9.6183872,-0.31347901,0.96674502,0.73930502,-0.081123002,-0.66574001,-0.060299002,-0.37616571,-1.4626189,0.17553442
3621201709472,1.0238311,0,,0.0077768033,0.0021439799,0.0029350503,9.6388779,-0.27555099,0.99986601,0.73930901,-0.081106998,-0.66573799,-0.060298,-0.37595216,-1.4626167,0.17534487
3621203695200,1.0258168,0,,0.0077768033,0.0021439799,0.0029350503,9.6388779,-0.27555099,0.99986601,0.73930901,-0.081106998,-0.66573799,-0.060298,-0.37595216,-1.4626167,0.17534487
3621205702752,1.0278244,0,,0.0077638704,0.0019302469,0.0064871447,9.6926804,-0.37209699,0.98813701,0.73931599,-0.081101,-0.66573101,-0.060284,-0.37598352,-1.462595,0.1754034
3621207693568,1.0298152,0,,0.0077638704,0.0019302469,0.0064871447,9.6926804,-0.37209699,0.98813701,0.73931599,-0.081101,-0.66573101,-0.060284,-0.37598352,-1.462595,0.1754034
3621209903072,1.0320247,0,,0.0077638704,0.0019302469,0.0064871447,9.6926804,-0.37209699,0.98813701,0.73931599,-0.081101,-0.66573101,-0.060284,-0.37598352,-1.462595,0.1754034
3621211682816,1.0338044,0,,-0.00070225068,0.00227666,0.0057617506,9.7726097,-0.41821301,0.96148497,0.73932201,-0.081101999,-0.66572601,-0.060268,-0.37614574,-1.4625737,0.1755877
3621213719744,1.0358413,0,,-0.00070225068,0.00227666,0.0057617506,9.7726097,-0.41821301,0.96148497,0.73932201,-0.081101999,-0.66572601,-0.060268,-0.37614574,-1.4625737,0.1755877
3621215716672,1.0378383,0,,-0.0023167676,-0.0034478979,0.001385233,9.7962542,-0.36991799,0.99811298,0.73932201,-0.081116997,-0.66572499,-0.060267001,-0.37635573,-1.4625652,0.17577795
3621217717728,1.0398393,0,,-0.0023167676,-0.0034478979,0.001385233,9.7962542,-0.36991799,0.99811298,0.73932201,-0.081116997,-0.66572499,-0.060267001,-0.37635573,-1.4625652,0.17577795
3621219708544,1.0418301,0,,-0.0023167676,-0.0034478979,0.001385233,9.7962542,-0.36991799,0.99811298,0.73932201,-0.081116997,-0.66572499,-0.060267001,-0.37635573,-1.4625652,0.17577795
3621221714208,1.0438358,0,,0.0056326486,0.00099237679,-0.0016372585,9.9079227,-0.48842999,0.96624601,0.73932099,-0.081114002,-0.66572601,-0.060268,-0.37631804,-1.4625709,0.17574277
3621223704768,1.0458264,0,,0.0056326486,0.00099237679,-0.0016372585,9.9079227,-0.48842999,0.96624601,0.73932099,-0.081114002,-0.66572601,-0.060268,-0.37631804,-1.4625709,0.17574277
3621225710816,1.0478324,0,,0.0024061632,0.00064748228,-0.003274517,10.037943,-0.47716999,1.002284,0.73932499,-0.081106,-0.66572303,-0.060260002,-0.3762783,-1.4625587,0.17572584
3621227700672,1.0498223,0,,0.0024061632,0.00064748228,-0.003274517,10.037943,-0.47716999,1.002284,0.73932499,-0.081106,-0.66572303,-0.060260002,-0.3762783,-1.4625587,0.17572584
3621229792512,1.0519141,0,,0.0024061632,0.00064748228,-0.003274517,10.037943,-0.47716999,1.002284,0.73932499,-0.081106,-0.66572303,-0.060260002,-0.3762783,-1.4625587,0.17572584
3621231707680,1.0538293,0,,0.00054070301,-0.0070112319,-0.0044022963,9.9688702,-0.459748,1.007082,0.73931998,-0.081101999,-0.66572899,-0.060263999,-0.37620869,-1.4625781,0.17565713
3621233715104,1.0558367,0,,0.00054070301,-0.0070112319,-0.0044022963,9.9688702,-0.459748,1.007082,0.73931998,-0.081101999,-0.66572899,-0.060263999,-0.37620869,-1.4625781,0.17565713
3621235699072,1.0578207,0,,0.00082711152,-0.0026126357,-0.010145075,9.7975454,-0.41069701,0.98173499,0.73931301,-0.081091002,-0.66573799,-0.060274001,-0.37600895,-1.4626073,0.17545811
3621237703456,1.0598251,0,,0.00082711152,-0.0026126357,-0.010145075,9.7975454,-0.41069701,0.98173499,0.73931301,-0.081091002,-0.66573799,-0.060274001,-0.37600895,-1.4626073,0.17545811
3621239697184,1.0618188,0,,0.00082711152,-0.0026126357,-0.010145075,9.7975454,-0.41069701,0.98173499,0.73931301,-0.081091002,-0.66573799,-0.060274001,-0.37600895,-1.4626073,0.17545811
3621241703072,1.0638247,0,,-0.00058943258,0.00045717156,-0.0059908428,9.6088839,-0.26948699,1.008294,0.73931199,-0.081078999,-0.665739,-0.060290001,-0.37566713,-1.4626222,0.17511108
3621243698240,1.0658198,0,,-0.00058943258,0.00045717156,-0.0059908428,9.6088839,-0.26948699,1.008294,0.73931199,-0.081078999,-0.665739,-0.060290001,-0.37566713,-1.4626222,0.17511108
3621245691584,1.0678132,0,,-0.0021837908,-0.0015340745,-0.00051124185,9.589035,-0.293697,0.97352999,0.73931199,-0.081073001,-0.66573697,-0.060306001,-0.37538584,-1.4626278,0.1748167
3621247698752,1.0698204,0,,-0.0021837908,-0.0015340745,-0.00051124185,9.589035,-0.293697,0.97352999,0.73931199,-0.081073001,-0.66573697,-0.060306001,-0.37538584,-1.4626278,0.1748167
3621249890528,1.0720121,0,,-0.0021837908,-0.0015340745,-0.00051124185,9.589035,-0.293697,0.97352999,0.73931199,-0.081073001,-0.66573697,-0.060306001,-0.37538584,-1.4626278,0.1748167
3621251688672,1.0738103,0,,3.5691983e-05,-0.0033833381,0.0047005906,9.6064987,-0.34263501,0.97630399,0.739308,-0.081079997,-0.66574103,-0.060311001,-0.37545059,-1.4626383,0.17486269
3621253686048,1.0758076,0,,3.5691983e-05,-0.0033833381,0.0047005906,9.6064987,-0.34263501,0.97630399,0.739308,-0.081079997,-0.66574103,-0.060311001,-0.37545059,-1.4626383,0.17486269
3621255685728,1.0778073,0,,0.0020385795,-0.0014202792,0.0037057705,9.6281242,-0.438609,1.020992,0.73930699,-0.081084996,-0.66574299,-0.060302999,-0.37561883,-1.4626371,0.17503545
3621257682400,1.079804,0,,0.0020385795,-0.0014202792,0.0037057705,9.6281242,-0.438609,1.020992,0.73930699,-0.081084996,-0.66574299,-0.060302999,-0.37561883,-1.4626371,0.17503545
3621259683904,1.0818055,0,,0.0020385795,-0.0014202792,0.0037057705,9.6281242,-0.438609,1.020992,0.73930699,-0.081084996,-0.66574299,-0.060302999,-0.37561883,-1.4626371,0.17503545
3621261692992,1.0838146,0,,-0.0020112476,-2.7925267e-06,-0.0018268012,9.6880102,-0.46346799,0.97213399,0.73930901,-0.081090003,-0.665739,-0.060300998,-0.37567802,-1.4626278,0.17509081
3621263701440,1.085823,0,,-0.0020112476,-2.7925267e-06,-0.0018268012,9.6880102,-0.46346799,0.97213399,0.73930901,-0.081090003,-0.665739,-0.060300998,-0.37567802,-1.4626278,0.17509081
3621265680576,1.0878022,0,,0.0025113019,-0.004263246,-0.0017411754,9.8639927,-0.483363,0.98067099,0.73930699,-0.081092,-0.66574103,-0.060302,-0.37570931,-1.4626322,0.17511757
3621267711168,1.0898328,0,,0.0025113019,-0.004263246,-0.0017411754,9.8639927,-0.483363,0.98067099,0.73930699,-0.081092,-0.66574103,-0.060302,-0.37570931,-1.4626322,0.17511757
3621269909696,1.0920313,0,,0.0025113019,-0.004263246,-0.0017411754,9.8639927,-0.483363,0.98067099,0.73930699,-0.081092,-0.66574103,-0.060302,-0.37570931,-1.4626322,0.17511757
3621271710624,1.0938322,0,,0.0078017439,-0.0010335665,-0.0041701849,9.9420033,-0.495074,0.99382198,0.73930299,-0.081082001,-0.66574699,-0.060298,-0.37566946,-1.462648,0.17509871
3621273712864,1.0958345,0,,0.0078017439,-0.0010335665,-0.0041701849,9.9420033,-0.495074,0.99382198,0.73930299,-0.081082001,-0.66574699,-0.060298,-0.37566946,-1.462648,0.17509871
3621275703264,1.0978249,0,,0.0059144319,0.00032459633,-0.0039870999,9.9248161,-0.40940499,1.05126,0.73930299,-0.081065997,-0.66574901,-0.060290001,-0.37555841,-1.4626535,0.17502023
3621277711904,1.0998335,0,,0.0059144319,0.00032459633,-0.0039870999,9.9248161,-0.40940499,1.05126,0.73930299,-0.081065997,-0.66574901,-0.060290001,-0.37555841,-1.4626535,0.17502023
3621279720896,1.1018425,0,,0.0059144319,0.00032459633,-0.0039870999,9.9248161,-0.40940499,1.05126,0.73930299,-0.081065997,-0.66574901,-0.060290001,-0.37555841,-1.4626535,0.17502023
3621281715936,1.1038375,0,,-0.0064440525,-0.003579967,-0.0022958758,9.7411375,-0.28705201,1.0053459,0.73930299,-0.081064999,-0.66575003,-0.0603,-0.37542266,-1.4626585,0.17487273
3621283701760,1.1058234,0,,-0.0064440525,-0.003579967,-0.0022958758,9.7411375,-0.28705201,1.0053459,0.73930299,-0.081064999,-0.66575003,-0.0603,-0.37542266,-1.4626585,0.17487273
3621285713472,1.1078351,0,,-0.0063487399,-0.003795428,0.0014087425,9.7376747,-0.31047899,0.94240898,0.73929697,-0.081073001,-0.66575402,-0.060318999,-0.3753362,-1.4626774,0.17474769
3621287700000,1.1098216,0,,-0.0063487399,-0.003795428,0.0014087425,9.7376747,-0.31047899,0.94240898,0.73929697,-0.081073001,-0.66575402,-0.060318999,-0.3753362,-1.4626774,0.17474769
3621289898048,1.1120196,0,,-0.0063487399,-0.003795428,0.0014087425,9.7376747,-0.31047899,0.94240898,0.73929697,-0.081073001,-0.66575402,-0.060318999,-0.3753362,-1.4626774,0.17474769
3621291695488,1.1138171,0,,0.0022750891,0.0045964818,0.0074914768,9.7573996,-0.363282,0.97474301,0.73929602,-0.081083,-0.66575301,-0.060320999,-0.37545621,-1.462674,0.17485081
3621293702912,1.1158245,0,,0.0022750891,0.0045964818,0.0074914768,9.7573996,-0.363282,0.97474301,0.73929602,-0.081083,-0.66575301,-0.060320999,-0.37545621,-1.462674,0.17485081
3621295731040,1.1178526,0,,0.0019010825,0.00044556509,0.0043055177,9.7901707,-0.393599,1.0176539,0.73930198,-0.081087999,-0.66574699,-0.060309999,-0.37560871,-1.4626503,0.17501179
3621297694400,1.119816,0,,0.0019010825,0.00044556509,0.0043055177,9.7901707,-0.393599,1.0176539,0.73930198,-0.081087999,-0.66574699,-0.060309999,-0.37560871,-1.4626503,0.17501179
3621299691520,1.1218131,0,,0.0019010825,0.00044556509,0.0043055177,9.7901707,-0.393599,1.0176539,0.73930198,-0.081087999,-0.66574699,-0.060309999,-0.37560871,-1.4626503,0.17501179
3621301689088,1.1238107,0,,0.0060918099,0.0020578654,-0.0026376114,9.786706,-0.48758,0.91519499,0.73930699,-0.081084996,-0.66574198,-0.060302,-0.37563345,-1.4626355,0.17505234
3621303691264,1.1258129,0,,0.0060918099,0.0020578654,-0.0026376114,9.786706,-0.48758,0.91519499,0.73930699,-0.081084996,-0.66574198,-0.060302,-0.37563345,-1.4626355,0.17505234
3621305688384,1.12781,0,,0.0052169812,-0.0020505524,-0.0095952269,9.7616253,-0.50330001,0.941468,0.73930699,-0.081068002,-0.66574502,-0.0603,-0.37543041,-1.4626447,0.17487511
3621307684896,1.1298065,0,,0.0052169812,-0.0020505524,-0.0095952269,9.7616253,-0.50330001,0.941468,0.73930699,-0.081068002,-0.66574502,-0.0603,-0.37543041,-1.4626447,0.17487511
3621309854752,1.1319764,0,,0.0052169812,-0.0020505524,-0.0095952269,9.7616253,-0.50330001,0.941468,0.73930699,-0.081068002,-0.66574502,-0.0603,-0.37543041,-1.4626447,0.17487511
3621311690656,1.1338123,0,,0.0016663356,-0.005365055,-0.0092918367,9.5209665,-0.21894901,1.0580961,0.73929799,-0.081052996,-0.66575497,-0.060307998,-0.37519672,-1.462679,0.17465222
3621313727648,1.1358492,0,,0.0016663356,-0.005365055,-0.0092918367,9.5209665,-0.21894901,1.0580961,0.73929799,-0.081052996,-0.66575497,-0.060307998,-0.37519672,-1.462679,0.17465222
3621315704192,1.1378258,0,,-0.00013365732,2.1781708e-05,-0.0019044335,9.3343287,-0.163194,0.95815897,0.73929799,-0.081037,-0.66575497,-0.060327999,-0.37475117,-1.4626933,0.17420163
3621317768256,1.1398899,0,,-0.00013365732,2.1781708e-05,-0.0019044335,9.3343287,-0.163194,0.95815897,0.73929799,-0.081037,-0.66575497,-0.060327999,-0.37475117,-1.4626933,0.17420163
3621319693536,1.1418151,0,,-0.00013365732,2.1781708e-05,-0.0019044335,9.3343287,-0.163194,0.95815897,0.73929799,-0.081037,-0.66575497,-0.060327999,-0.37475117,-1.4626933,0.17420163
3621321693728,1.1438153,0,,-0.0049332427,-0.0019630591,0.011008891,9.6113071,-0.307769,0.87444299,0.73929697,-0.081044003,-0.66575497,-0.060337,-0.37474425,-1.4626957,0.17417047
3621323690208,1.1458118,0,,-0.0049332427,-0.0019630591,0.011008891,9.6113071,-0.307769,0.87444299,0.73929697,-0.081044003,-0.66575497,-0.060337,-0.37474425,-1.4626957,0.17417047
3621325689248,1.1478108,0,,-0.0020671854,0.0039703797,0.013296023,10.035422,-0.30706099,1.042915,0.739299,-0.081068002,-0.66575199,-0.060322002,-0.37522169,-1.462674,0.17463577
3621327688864,1.1498105,0,,-0.0020671854,0.0039703797,0.013296023,10.035422,-0.30706099,1.042915,0.739299,-0.081068002,-0.66575199,-0.060322002,-0.37522169,-1.462674,0.17463577
3621329916064,1.1520377,0,,-0.0020671854,0.0039703797,0.013296023,10.035422,-0.30706099,1.042915,0.739299,-0.081068002,-0.66575199,-0.060322002,-0.37522169,-1.462674,0.17463577
3621331708128,1.1538297,0,,-0.0008469559,0.00055810396,0.0055322922,10.107469,-0.50027001,1.064834,0.73930502,-0.081086002,-0.66574299,-0.060314998,-0.37549469,-1.4626427,0.17489353
3621333715488,1.1558371,0,,-0.0008469559,0.00055810396,0.0055322922,10.107469,-0.50027001,1.064834,0.73930502,-0.081086002,-0.66574299,-0.060314998,-0.37549469,-1.4626427,0.17489353
3621335699136,1.1578207,0,,-0.00028749065,-0.0010085385,0.0016057727,9.9126301,-0.721968,0.90791899,0.73930901,-0.081096001,-0.66573799,-0.060307,-0.37569353,-1.4626255,0.17508964
3621337707456,1.1598291,0,,-0.00028749065,-0.0010085385,0.0016057727,9.9126301,-0.721968,0.90791899,0.73930901,-0.081096001,-0.66573799,-0.060307,-0.37569353,-1.4626255,0.17508964
3621339700704,1.1618223,0,,-0.00028749065,-0.0010085385,0.0016057727,9.9126301,-0.721968,0.90791899,0.73930901,-0.081096001,-0.66573799,-0.060307,-0.37569353,-1.4626255,0.17508964
3621341706304,1.1638279,0,,-8.3287112e-05,-0.00098176517,-0.0037818841,9.8158703,-0.332454,0.938802,0.73930502,-0.081107996,-0.66574198,-0.060295001,-0.3760196,-1.4626255,0.1754141
3621343736288,1.1658579,0,,-8.3287112e-05,-0.00098176517,-0.0037818841,9.8158703,-0.332454,0.938802,0.73930502,-0.081107996,-0.66574198,-0.060295001,-0.3760196,-1.4626255,0.1754141
3621345719296,1.1678409,0,,0.002722225,-0.0014318332,-0.0096188583,9.8132534,-0.33225,1.030381,0.73930198,-0.081093997,-0.66574597,-0.060309,-0.3756954,-1.4626447,0.17509132
3621347711264,1.1698329,0,,0.002722225,-0.0014318332,-0.0096188583,9.8132534,-0.33225,1.030381,0.73930198,-0.081093997,-0.66574597,-0.060309,-0.3756954,-1.4626447,0.17509132
3621349871776,1.1719934,0,,0.002722225,-0.0014318332,-0.0096188583,9.8132534,-0.33225,1.030381,0.73930198,-0.081093997,-0.66574597,-0.060309,-0.3756954,-1.4626447,0.17509132
3621351704416,1.173826,0,,0.007405502,0.0022845314,-0.0061372932,9.8693247,-0.480212,1.027355,0.73930597,-0.081069998,-0.66574299,-0.060318999,-0.37522309,-1.4626491,0.17463867
3621353717472,1.1758391,0,,0.007405502,0.0022845314,-0.0061372932,9.8693247,-0.480212,1.027355,0.73930597,-0.081069998,-0.66574299,-0.060318999,-0.37522309,-1.4626491,0.17463867
3621355703072,1.1778247,0,,-0.003262893,-0.0016729155,-0.0035108869,9.6737509,-0.34807599,0.98743701,0.73930901,-0.081063002,-0.66574001,-0.060323998,-0.37506513,-1.4626471,0.17448327
3621357715200,1.1798368,0,,-0.003262893,-0.0016729155,-0.0035108869,9.6737509,-0.34807599,0.98743701,0.73930901,-0.081063002,-0.66574001,-0.060323998,-0.37506513,-1.4626471,0.17448327
3621359704000,1.1818256,0,,-0.003262893,-0.0016729155,-0.0035108869,9.6737509,-0.34807599,0.98743701,0.73930901,-0.081063002,-0.66574001,-0.060323998,-0.37506513,-1.4626471,0.17448327
3621361741472,1.1838631,0,,0.0014451152,-0.0023146732,0.0020003567,9.5138931,-0.255189,0.97539401,0.73930699,-0.081064001,-0.66574198,-0.060332,-0.37499202,-1.4626559,0.17439747
3621363701888,1.1858235,0,,0.0014451152,-0.0023146732,0.0020003567,9.5138931,-0.255189,0.97539401,0.73930699,-0.081064001,-0.66574198,-0.060332,-0.37499202,-1.4626559,0.17439747
3621365704480,1.1878261,0,,0.0008639554,-0.0012510869,0.0046146678,9.5941925,-0.34805101,0.97819799,0.73930502,-0.081061997,-0.66574401,-0.06033,-0.37499858,-1.4626603,0.1744098
3621367696224,1.1898178,0,,0.0008639554,-0.0012510869,0.0046146678,9.5941925,-0.34805101,0.97819799,0.73930502,-0.081061997,-0.66574401,-0.06033,-0.37499858,-1.4626603,0.1744098
3621369930688,1.1920523,0,,0.0008639554,-0.0012510869,0.0046146678,9.5941925,-0.34805101,0.97819799,0.73930502,-0.081061997,-0.66574401,-0.06033,-0.37499858,-1.4626603,0.1744098
3621371694816,1.1938164,0,,-0.00039226276,-0.00034990361,0.0060294492,9.7209253,-0.383306,1.030677,0.73930699,-0.081070997,-0.66574198,-0.060322002,-0.37519632,-1.4626488,0.17460611
3621373704480,1.1958261,0,,-0.00039226276,-0.00034990361,0.0060294492,9.7209253,-0.383306,1.030677,0.73930699,-0.081070997,-0.66574198,-0.060322002,-0.37519632,-1.4626488,0.17460611
3621375698016,1.1978196,0,,-0.0039890723,-0.0075032754,0.0064007506,9.6739464,-0.415115,1.0117429,0.73930299,-0.081087001,-0.66574502,-0.060318001,-0.37549276,-1.4626497,0.17488513
3621377693856,1.1998155,0,,-0.0039890723,-0.0075032754,0.0064007506,9.6739464,-0.415115,1.0117429,0.73930299,-0.081087001,-0.66574502,-0.060318001,-0.37549276,-1.4626497,0.17488513
3621379689472,1.2018111,0,,-0.0039890723,-0.0075032754,0.0064007506,9.6739464,-0.415115,1.0117429,0.73930299,-0.081087001,-0.66574502,-0.060318001,-0.37549276,-1.4626497,0.17488513
3621381687552,1.2038092,0,,0.0039577609,-0.0011997044,0.0034128168,9.7207594,-0.465287,0.95013601,0.739299,-0.081098996,-0.665748,-0.060309,-0.37578381,-1.4626515,0.17517187
3621383685408,1.205807,0,,0.0039577609,-0.0011997044,0.0034128168,9.7207594,-0.465287,0.95013601,0.739299,-0.081098996,-0.665748,-0.060309,-0.37578381,-1.4626515,0.17517187
3621385688768,1.2078104,0,,-0.00064798838,0.0022214376,0.00081037385,9.8261061,-0.57349801,0.95164698,0.73930103,-0.081098996,-0.66574699,-0.060300998,-0.37586567,-1.4626436,0.17526448
3621387685632,1.2098072,0,,-0.00064798838,0.0022214376,0.00081037385,9.8261061,-0.57349801,0.95164698,0.73930103,-0.081098996,-0.66574699,-0.060300998,-0.37586567,-1.4626436,0.17526448
3621389884608,1.2120062,0,,-0.00064798838,0.0022214376,0.00081037385,9.8261061,-0.57349801,0.95164698,0.73930103,-0.081098996,-0.66574699,-0.060300998,-0.37586567,-1.4626436,0.17526448
3621391714688,1.2138363,0,,-0.0072918287,0.0019354305,-0.0019385198,9.9908171,-0.43384501,1.0107189,0.73930401,-0.081113003,-0.66574299,-0.060302,-0.37601095,-1.462631,0.17538935
3621393729376,1.215851,0,,-0.0072918287,0.0019354305,-0.0019385198,9.9908171,-0.43384501,1.0107189,0.73930401,-0.081113003,-0.66574299,-0.060302,-0.37601095,-1.462631,0.17538935
3621395784320,1.2179059,0,,-0.0036665702,-0.003576075,-0.0012969717,9.9615726,-0.25871599,1.014529,0.73930198,-0.081125997,-0.66574198,-0.060316,-0.37603112,-1.462631,0.17537047
3621397772128,1.2198937,0,,-0.0036665702,-0.003576075,-0.0012969717,9.9615726,-0.25871599,1.014529,0.73930198,-0.081125997,-0.66574198,-0.060316,-0.37603112,-1.462631,0.17537047
3621399717984,1.2218396,0,,-0.0036665702,-0.003576075,-0.0012969717,9.9615726,-0.25871599,1.014529,0.73930198,-0.081125997,-0.66574198,-0.060316,-0.37603112,-1.462631,0.17537047
3621401721920,1.2238435,0,,-0.0046541996,-0.0043130752,-0.00046186648,9.8406973,-0.25826401,0.97593802,0.73929501,-0.081128001,-0.665748,-0.060330998,-0.37592187,-1.4626552,0.17523768
3621403708992,1.2258306,0,,-0.0046541996,-0.0043130752,-0.00046186648,9.8406973,-0.25826401,0.97593802,0.73929501,-0.081128001,-0.665748,-0.060330998,-0.37592187,-1.4626552,0.17523768
3621405737920,1.2278595,0,,0.00021926572,0.0022873064,0.0016721126,9.7476482,-0.385014,0.93935001,0.73929203,-0.081129998,-0.66574901,-0.060341999,-0.37583035,-1.4626647,0.17512801
3621407708096,1.2298297,0,,0.00021926572,0.0022873064,0.0016721126,9.7476482,-0.385014,0.93935001,0.73929203,-0.081129998,-0.66574901,-0.060341999,-0.37583035,-1.4626647,0.17512801
3621409924192,1.2320458,0,,0.00021926572,0.0022873064,0.0016721126,9.7476482,-0.385014,0.93935001,0.73929203,-0.081129998,-0.66574901,-0.060341999,-0.37583035,-1.4626647,0.17512801
3621411692000,1.2338136,0,,0.0021610143,0.0042073082,0.0026651002,9.7119217,-0.41236499,0.96779001,0.73929799,-0.081129,-0.66574401,-0.060336001,-0.37585429,-1.4626447,0.17516133
3621413685536,1.2358071,0,,0.0021610143,0.0042073082,0.0026651002,9.7119217,-0.41236499,0.96779001,0.73929799,-0.081129,-0.66574401,-0.060336001,-0.37585429,-1.4626447,0.17516133
3621415685056,1.2378067,0,,-0.0003024481,-0.0030963536,0.0031245059,9.6666698,-0.35390601,0.970981,0.73930001,-0.081134997,-0.66574103,-0.060332,-0.37596867,-1.4626366,0.17527325
3621417681856,1.2398035,0,,-0.0003024481,-0.0030963536,0.0031245059,9.6666698,-0.35390601,0.970981,0.73930001,-0.081134997,-0.66574103,-0.060332,-0.37596867,-1.4626366,0.17527325
3621419681120,1.2418027,0,,-0.0003024481,-0.0030963536,0.0031245059,9.6666698,-0.35390601,0.970981,0.73930001,-0.081134997,-0.66574103,-0.060332,-0.37596867,-1.4626366,0.17527325
3621421679776,1.2438014,0,,-0.0047808059,-0.0042735957,0.0012453273,9.6379166,-0.342336,0.92978299,0.73929399,-0.081142999,-0.66574699,-0.060330998,-0.37611564,-1.4626488,0.17540969
3621423677216,1.2457988,0,,-0.0047808059,-0.0042735957,0.0012453273,9.6379166,-0.342336,0.92978299,0.73929399,-0.081142999,-0.66574699,-0.060330998,-0.37611564,-1.4626488,0.17540969
3621425692160,1.2478138,0,,-0.010083867,-0.0063740124,-0.0016508895,9.7056255,-0.34741101,0.98860699,0.73928201,-0.081157997,-0.665757,-0.060348999,-0.37618199,-1.4626796,0.17543008
3621427690368,1.249812,0,,-0.010083867,-0.0063740124,-0.0016508895,9.7056255,-0.34741101,0.98860699,0.73928201,-0.081157997,-0.665757,-0.060348999,-0.37618199,-1.4626796,0.17543008
3621429918464,1.2520401,0,,-0.010083867,-0.0063740124,-0.0016508895,9.7056255,-0.34741101,0.98860699,0.73928201,-0.081157997,-0.665757,-0.060348999,-0.37618199,-1.4626796,0.17543008
3621431700704,1.2538223,0,,-0.0047887298,-0.0077464521,-0.00070074972,9.7769089,-0.410063,1.008586,0.73926902,-0.081173003,-0.66576803,-0.060366999,-0.37624258,-1.4627127,0.17544349
3621433694464,1.2558161,0,,-0.0047887298,-0.0077464521,-0.00070074972,9.7769089,-0.410063,1.008586,0.73926902,-0.081173003,-0.66576803,-0.060366999,-0.37624258,-1.4627127,0.17544349
3621435672800,1.2577944,0,,-0.0012901299,-0.003777416,0.0033382389,9.7890739,-0.36657301,0.994066,0.73926097,-0.081180997,-0.66577601,-0.060369998,-0.37638276,-1.4627359,0.17556851
3621437671040,1.2597926,0,,-0.0012901299,-0.003777416,0.0033382389,9.7890739,-0.36657301,0.994066,0.73926097,-0.081180997,-0.66577601,-0.060369998,-0.37638276,-1.4627359,0.17556851
3621439696736,1.2618183,0,,-0.0012901299,-0.003777416,0.0033382389,9.7890739,-0.36657301,0.994066,0.73926097,-0.081180997,-0.66577601,-0.060369998,-0.37638276,-1.4627359,0.17556851
3621441715264,1.2638369,0,,-0.0012901299,-0.003777416,0.0033382389,9.7890739,-0.36657301,0.994066,0.73926097,-0.081180997,-0.66577601,-0.060369998,-0.37638276,-1.4627359,0.17556851
3621443673280,1.2657949,0,,-0.0012901299,-0.003777416,0.0033382389,9.7890739,-0.36657301,0.994066,0.73926097,-0.081180997,-0.66577601,-0.060369998,-0.37638276,-1.4627359,0.17556851
3621445709888,1.2678315,0,,0.0012508251,-0.00107336,0.0046081581,9.8637133,-0.49351299,0.98516899,0.73925799,-0.081194997,-0.66577703,-0.060366999,-0.37661589,-1.4627304,0.17578624
3621447696192,1.2698178,0,,0.0012508251,-0.00107336,0.0046081581,9.8637133,-0.49351299,0.98516899,0.73925799,-0.081194997,-0.66577703,-0.060366999,-0.37661589,-1.4627304,0.17578624
3621449862144,1.2719837,0,,0.0012508251,-0.00107336,0.0046081581,9.8637133,-0.49351299,0.98516899,0.73925799,-0.081194997,-0.66577703,-0.060366999,-0.37661589,-1.4627304,0.17578624
3621451695776,1.2738174,0,,0.00037088247,-0.002509382,0.0010004227,9.9624338,-0.50508898,1.040282,0.73925602,-0.081202999,-0.66578001,-0.060359001,-0.37684598,-1.4627327,0.17601581
3621453693408,1.275815,0,,0.00037088247,-0.002509382,0.0010004227,9.9624338,-0.50508898,1.040282,0.73925602,-0.081202999,-0.66578001,-0.060359001,-0.37684598,-1.4627327,0.17601581
3621455692384,1.277814,0,,0.0004876101,0.0041011573,-0.00013552481,9.9431496,-0.50684899,1.011461,0.739259,-0.081208996,-0.665775,-0.060357001,-0.37691709,-1.4627195,0.17608124
3621457719264,1.2798409,0,,0.0004876101,0.0041011573,-0.00013552481,9.9431496,-0.50684899,1.011461,0.739259,-0.081208996,-0.665775,-0.060357001,-0.37691709,-1.4627195,0.17608124
3621459694176,1.2818158,0,,0.0004876101,0.0041011573,-0.00013552481,9.9431496,-0.50684899,1.011461,0.739259,-0.081208996,-0.665775,-0.060357001,-0.37691709,-1.4627195,0.17608124
3621461730880,1.2838525,0,,-0.0029257303,0.0011495612,-0.0038146963,9.7841949,-0.40377,0.99026501,0.73926598,-0.081211999,-0.66576701,-0.060359001,-0.37686872,-1.4626977,0.17602543
3621463708320,1.2858299,0,,-0.0029257303,0.0011495612,-0.0038146963,9.7841949,-0.40377,0.99026501,0.73926598,-0.081211999,-0.66576701,-0.060359001,-0.37686872,-1.4626977,0.17602543
3621465710624,1.2878322,0,,-0.0053673411,-0.0011551287,-0.0036944257,9.5565901,-0.35289299,0.98558301,0.73926502,-0.081215002,-0.66576701,-0.060375001,-0.37672904,-1.4627055,0.17585751
3621467701152,1.2898228,0,,-0.0053673411,-0.0011551287,-0.0036944257,9.5565901,-0.35289299,0.98558301,0.73926502,-0.081215002,-0.66576701,-0.060375001,-0.37672904,-1.4627055,0.17585751
3621469897504,1.2920191,0,,-0.0053673411,-0.0011551287,-0.0036944257,9.5565901,-0.35289299,0.98558301,0.73926502,-0.081215002,-0.66576701,-0.060375001,-0.37672904,-1.4627055,0.17585751
3621471698240,1.2938198,0,,-0.0085954845,-0.0035970713,-0.0026322708,9.5430346,-0.37859401,0.978297,0.73926002,-0.081222996,-0.66576898,-0.060396001,-0.37660177,-1.4627198,0.17569088
3621473706848,1.2958284,0,,-0.0085954845,-0.0035970713,-0.0026322708,9.5430346,-0.37859401,0.978297,0.73926002,-0.081222996,-0.66576898,-0.060396001,-0.37660177,-1.4627198,0.17569088
3621475698688,1.2978203,0,,-0.0032761227,-0.00040594615,0.004117703,9.6425486,-0.38432899,0.97567701,0.73925799,-0.081237003,-0.66576898,-0.060407002,-0.37666535,-1.462721,0.17571841
3621477719680,1.2998413,0,,-0.0032761227,-0.00040594615,0.004117703,9.6425486,-0.38432899,0.97567701,0.73925799,-0.081237003,-0.66576898,-0.060407002,-0.37666535,-1.462721,0.17571841
3621479755264,1.3018769,0,,-0.0032761227,-0.00040594615,0.004117703,9.6425486,-0.38432899,0.97567701,0.73925799,-0.081237003,-0.66576898,-0.060407002,-0.37666535,-1.462721,0.17571841
3621481770784,1.3038924,0,,0.00082962481,-0.0029282262,0.0041266391,9.7472429,-0.290773,1.000953,0.73925698,-0.081247002,-0.66576898,-0.060401,-0.37687218,-1.4627171,0.17591945
3621483718400,1.30584,0,,0.00082962481,-0.0029282262,0.0041266391,9.7472429,-0.290773,1.000953,0.73925698,-0.081247002,-0.66576898,-0.060401,-0.37687218,-1.4627171,0.17591945
3621485684352,1.307806,0,,0.0078665831,0.0079755438,0.00072495744,9.8107376,-0.42843601,0.97362202,0.739263,-0.081240997,-0.66576302,-0.060400002,-0.37676392,-1.4627018,0.17582036
3621487682848,1.3098044,0,,0.0078665831,0.0079755438,0.00072495744,9.8107376,-0.42843601,0.97362202,0.739263,-0.081240997,-0.66576302,-0.060400002,-0.37676392,-1.4627018,0.17582036
3621489844160,1.3119658,0,,0.0078665831,0.0079755438,0.00072495744,9.8107376,-0.42843601,0.97362202,0.739263,-0.081240997,-0.66576302,-0.060400002,-0.37676392,-1.4627018,0.17582036
3621491714592,1.3138362,0,,-8.6393795e-06,0.0021406463,0.0010575125,9.8712168,-0.46278101,0.96269798,0.73927498,-0.081234999,-0.66575199,-0.060391001,-0.37671166,-1.4626684,0.17579035
3621493713568,1.3158352,0,,-8.6393795e-06,0.0021406463,0.0010575125,9.8712168,-0.46278101,0.96269798,0.73927498,-0.081234999,-0.66575199,-0.060391001,-0.37671166,-1.4626684,0.17579035
