t_recv_ns,t_s,t_stamp_ns,frame_id,angular_velocity.x,angular_velocity.y,angular_velocity.z,linear_acceleration.x,linear_acceleration.y,linear_acceleration.z,quaternion.w,quaternion.x,quaternion.y,quaternion.z,rpy.x,rpy.y,rpy.z
4665888191232,0,0,,0.00051424383,0.00029307568,-0.0014951014,9.7734203,-0.30153999,0.98193997,0.74004501,-0.072011001,-0.66685498,-0.049508002,-0.38444358,-1.462456,0.21212236
4665888380320,0.000189088,0,,0.00051424383,0.00029307568,-0.0014951014,9.7734203,-0.30153999,0.98193997,0.74004501,-0.072011001,-0.66685498,-0.049508002,-0.38444358,-1.462456,0.21212236
4665890060736,0.001869504,0,,0.00051424383,0.00029307568,-0.0014951014,9.7734203,-0.30153999,0.98193997,0.74004501,-0.072011001,-0.66685498,-0.049508002,-0.38444358,-1.462456,0.21212236
4665892119168,0.003927936,0,,0.0034695749,0.0013199401,0.0025247932,9.8138952,-0.38740098,0.98335397,0.74004698,-0.072001003,-0.66685402,-0.049506001,-0.38432674,-1.4624533,0.21202304
4665894046720,0.005855488,0,,0.0034695749,0.0013199401,0.0025247932,9.8138952,-0.38740098,0.98335397,0.74004698,-0.072001003,-0.66685402,-0.049506001,-0.38432674,-1.4624533,0.21202304
4665896035712,0.00784448,0,,-0.00033923965,-0.0053759631,0.0020067621,9.8563452,-0.43484399,0.99701703,0.740044,-0.072001003,-0.66685802,-0.0495,-0.38442118,-1.4624616,0.21212666
4665898032256,0.009841024,0,,-0.00033923965,-0.0053759631,0.0020067621,9.8563452,-0.43484399,0.99701703,0.740044,-0.072001003,-0.66685802,-0.0495,-0.38442118,-1.4624616,0.21212666
4665900254240,0.012063008,0,,-0.00033923965,-0.0053759631,0.0020067621,9.8563452,-0.43484399,0.99701703,0.740044,-0.072001003,-0.66685802,-0.0495,-0.38442118,-1.4624616,0.21212666
4665902066944,0.013875712,0,,0.0018042342,-0.0032993005,0.0044864558,9.7734375,-0.369688,0.99518001,0.74003702,-0.072011001,-0.66686398,-0.049493,-0.3846852,-1.4624721,0.21238611
4665904078592,0.01588736,0,,0.0018042342,-0.0032993005,0.0044864558,9.7734375,-0.369688,0.99518001,0.74003702,-0.072011001,-0.66686398,-0.049493,-0.3846852,-1.4624721,0.21238611
4665906060736,0.017869504,0,,0.0015585964,-0.00075310958,0.00020629791,9.7512074,-0.44399801,0.97552997,0.74003601,-0.072007999,-0.66686702,-0.049486998,-0.38474256,-1.462477,0.21245636
4665908054624,0.019863392,0,,0.0015585964,-0.00075310958,0.00020629791,9.7512074,-0.44399801,0.97552997,0.74003601,-0.072007999,-0.66686702,-0.049486998,-0.38474256,-1.462477,0.21245636
4665910067840,0.021876608,0,,0.0015585964,-0.00075310958,0.00020629791,9.7512074,-0.44399801,0.97552997,0.74003601,-0.072007999,-0.66686702,-0.049486998,-0.38474256,-1.462477,0.21245636
4665912057088,0.023865856,0,,0.00072836077,-0.0042760042,0.0015019256,9.8307114,-0.50080597,0.98909402,0.74003297,-0.072012,-0.66687,-0.049486,-0.38483364,-1.4624832,0.21254246
4665914177760,0.025986528,0,,0.00072836077,-0.0042760042,0.0015019256,9.8307114,-0.50080597,0.98909402,0.74003297,-0.072012,-0.66687,-0.049486,-0.38483364,-1.4624832,0.21254246
4665916077504,0.027886272,0,,0.0046649511,-0.0038444192,-0.0021818709,9.7647734,-0.398996,1.002792,0.74002701,-0.072016001,-0.66687602,-0.049485002,-0.38494675,-1.4624964,0.21265177
4665918088960,0.029897728,0,,0.0046649511,-0.0038444192,-0.0021818709,9.7647734,-0.398996,1.002792,0.74002701,-0.072016001,-0.66687602,-0.049485002,-0.38494675,-1.4624964,0.21265177
4665920245536,0.032054304,0,,0.0046649511,-0.0038444192,-0.0021818709,9.7647734,-0.398996,1.002792,0.74002701,-0.072016001,-0.66687602,-0.049485002,-0.38494675,-1.4624964,0.21265177
4665922051168,0.033859936,0,,-0.001061614,-0.00042556362,-0.0020084725,9.6259832,-0.30294698,0.98988199,0.74002498,-0.072010003,-0.666879,-0.049486998,-0.38485384,-1.4625062,0.21256335
4665924039616,0.035848384,0,,-0.001061614,-0.00042556362,-0.0020084725,9.6259832,-0.30294698,0.98988199,0.74002498,-0.072010003,-0.666879,-0.049486998,-0.38485384,-1.4625062,0.21256335
4665926056832,0.0378656,0,,0.0016492838,-0.003081344,0.0021286385,9.5801077,-0.31614801,0.97411901,0.74002397,-0.072002001,-0.66688102,-0.049486998,-0.3847555,-1.4625146,0.21247666
4665928041504,0.039850272,0,,0.0016492838,-0.003081344,0.0021286385,9.5801077,-0.31614801,0.97411901,0.74002397,-0.072002001,-0.66688102,-0.049486998,-0.3847555,-1.4625146,0.21247666
4665930044160,0.041852928,0,,0.0016492838,-0.003081344,0.0021286385,9.5801077,-0.31614801,0.97411901,0.74002397,-0.072002001,-0.66688102,-0.049486998,-0.3847555,-1.4625146,0.21247666
4665932251520,0.044060288,0,,0.0006900857,-0.00052400019,0.0048838499,9.6126137,-0.26185599,0.990578,0.74002099,-0.072002001,-0.66688502,-0.049479999,-0.3848619,-1.4625207,0.21259427
4665934047328,0.045856096,0,,0.0006900857,-0.00052400019,0.0048838499,9.6126137,-0.26185599,0.990578,0.74002099,-0.072002001,-0.66688502,-0.049479999,-0.3848619,-1.4625207,0.21259427
4665936057184,0.047865952,0,,0.0017077697,6.1645027e-05,0.0056658971,9.7954741,-0.43278798,0.99017799,0.74002498,-0.071997002,-0.66688198,-0.049465001,-0.38494629,-1.4625069,0.21270663
4665938077760,0.049886528,0,,0.0017077697,6.1645027e-05,0.0056658971,9.7954741,-0.43278798,0.99017799,0.74002498,-0.071997002,-0.66688198,-0.049465001,-0.38494629,-1.4625069,0.21270663
4665940090528,0.051899296,0,,0.0017077697,6.1645027e-05,0.0056658971,9.7954741,-0.43278798,0.99017799,0.74002498,-0.071997002,-0.66688198,-0.049465001,-0.38494629,-1.4625069,0.21270663
4665942039264,0.053848032,0,,-0.00081058327,0.0013632941,0.0040280977,9.9321604,-0.55334997,0.96659601,0.74002701,-0.072007999,-0.666879,-0.049460001,-0.38512575,-1.4624929,0.2128785
4665944045600,0.055854368,0,,-0.00081058327,0.0013632941,0.0040280977,9.9321604,-0.55334997,0.96659601,0.74002701,-0.072007999,-0.666879,-0.049460001,-0.38512575,-1.4624929,0.2128785
4665946046016,0.057854784,0,,-0.0057958718,-0.0013285097,0.0016391608,9.9653015,-0.500947,1.007179,0.74002498,-0.072034001,-0.66687799,-0.049461998,-0.38546054,-1.4624838,0.21317235
4665948101280,0.059910048,0,,-0.0057958718,-0.0013285097,0.0016391608,9.9653015,-0.500947,1.007179,0.74002498,-0.072034001,-0.66687799,-0.049461998,-0.38546054,-1.4624838,0.21317235
4665950041472,0.06185024,0,,-0.0057958718,-0.0013285097,0.0016391608,9.9653015,-0.500947,1.007179,0.74002498,-0.072034001,-0.66687799,-0.049461998,-0.38546054,-1.4624838,0.21317235
4665952096960,0.063905728,0,,-0.0040915057,-0.0018418634,-0.0051867871,9.8954802,-0.44149199,0.986076,0.740022,-0.072048001,-0.66687799,-0.049477998,-0.3854664,-1.4624897,0.21313488
4665954034880,0.065843648,0,,-0.0040915057,-0.0018418634,-0.0051867871,9.8954802,-0.44149199,0.986076,0.740022,-0.072048001,-0.66687799,-0.049477998,-0.3854664,-1.4624897,0.21313488
4665956023680,0.067832448,0,,-0.00086566584,-0.0001969604,-0.0087294915,9.7992201,-0.39593601,0.99099702,0.74001902,-0.072044,-0.66688102,-0.049497001,-0.38521004,-1.4625078,0.21285858
4665958051456,0.069860224,0,,-0.00086566584,-0.0001969604,-0.0087294915,9.7992201,-0.39593601,0.99099702,0.74001902,-0.072044,-0.66688102,-0.049497001,-0.38521004,-1.4625078,0.21285858
4665960216992,0.07202576,0,,-0.00086566584,-0.0001969604,-0.0087294915,9.7992201,-0.39593601,0.99099702,0.74001902,-0.072044,-0.66688102,-0.049497001,-0.38521004,-1.4625078,0.21285858
4665962050496,0.073859264,0,,-0.0014675077,-0.00088355545,-0.0020942031,9.673955,-0.26394701,0.99790102,0.740017,-0.072038002,-0.66688299,-0.049509998,-0.38499093,-1.4625201,0.21262908
4665964047968,0.075856736,0,,-0.0014675077,-0.00088355545,-0.0020942031,9.673955,-0.26394701,0.99790102,0.740017,-0.072038002,-0.66688299,-0.049509998,-0.38499093,-1.4625201,0.21262908
4665966047552,0.07785632,0,,0.0016428959,0.0015588408,0.0012791169,9.6677217,-0.31836098,0.96709597,0.74001998,-0.072024003,-0.66688102,-0.049509998,-0.38479678,-1.4625207,0.21245561
4665968078112,0.07988688,0,,0.0016428959,0.0015588408,0.0012791169,9.6677217,-0.31836098,0.96709597,0.74001998,-0.072024003,-0.66688102,-0.049509998,-0.38479678,-1.4625207,0.21245561
4665970059104,0.081867872,0,,0.0016428959,0.0015588408,0.0012791169,9.6677217,-0.31836098,0.96709597,0.74001998,-0.072024003,-0.66688102,-0.049509998,-0.38479678,-1.4625207,0.21245561
4665972048896,0.083857664,0,,4.4331363e-05,-0.0012676151,0.0035249717,9.6998558,-0.359604,0.97124898,0.74002099,-0.072021998,-0.66688102,-0.049504999,-0.38482278,-1.4625174,0.21249056
4665974063776,0.085872544,0,,4.4331363e-05,-0.0012676151,0.0035249717,9.6998558,-0.359604,0.97124898,0.74002099,-0.072021998,-0.66688102,-0.049504999,-0.38482278,-1.4625174,0.21249056
4665976058816,0.087867584,0,,0.0058109166,0.002298843,0.0046080182,9.7238483,-0.409197,0.98787099,0.74002302,-0.072017998,-0.66688001,-0.049493,-0.38489382,-1.4625102,0.21258544
4665978065472,0.08987424,0,,0.0058109166,0.002298843,0.0046080182,9.7238483,-0.409197,0.98787099,0.74002302,-0.072017998,-0.66688001,-0.049493,-0.38489382,-1.4625102,0.21258544
4665980231904,0.092040672,0,,0.0058109166,0.002298843,0.0046080182,9.7238483,-0.409197,0.98787099,0.74002302,-0.072017998,-0.66688001,-0.049493,-0.38489382,-1.4625102,0.21258544
4665982079872,0.09388864,0,,0.0023244294,0.0012561833,0.0006739938,9.73913,-0.439693,0.96307701,0.74002802,-0.072017998,-0.666875,-0.049484,-0.38496516,-1.4624936,0.21266828
4665984080288,0.095889056,0,,0.0023244294,0.0012561833,0.0006739938,9.73913,-0.439693,0.96307701,0.74002802,-0.072017998,-0.666875,-0.049484,-0.38496516,-1.4624936,0.21266828
4665986044896,0.097853664,0,,0.0023244294,0.0012561833,0.0006739938,9.73913,-0.439693,0.96307701,0.74002802,-0.072017998,-0.666875,-0.049484,-0.38496516,-1.4624936,0.21266828
4665988037536,0.099846304,0,,-0.0013932265,0.00020078268,-0.0023605753,9.7763023,-0.41588899,0.98241597,0.74002701,-0.072017998,-0.666875,-0.049488999,-0.38491047,-1.4624964,0.21260671
4665990033888,0.10184266,0,,-0.0013932265,0.00020078268,-0.0023605753,9.7763023,-0.41588899,0.98241597,0.74002701,-0.072017998,-0.666875,-0.049488999,-0.38491047,-1.4624964,0.21260671
4665992050880,0.10385965,0,,0.00065730847,0.001342612,-0.0054840339,9.8336105,-0.470557,0.977889,0.74002898,-0.072015002,-0.66687298,-0.049502,-0.38469305,-1.4624974,0.2123749
4665994034048,0.10584282,0,,0.00065730847,0.001342612,-0.0054840339,9.8336105,-0.470557,0.977889,0.74002898,-0.072015002,-0.66687298,-0.049502,-0.38469305,-1.4624974,0.2123749
4665996028896,0.10783766,0,,0.00065730847,0.001342612,-0.0054840339,9.8336105,-0.470557,0.977889,0.74002898,-0.072015002,-0.66687298,-0.049502,-0.38469305,-1.4624974,0.2123749
4665998041952,0.10985072,0,,0.00065427158,-0.00085034187,-0.00081339325,9.8393002,-0.33154699,0.99751097,0.74002999,-0.072017998,-0.66687101,-0.049508002,-0.38465111,-1.4624953,0.21232063
4666000226304,0.11203507,0,,0.00065427158,-0.00085034187,-0.00081339325,9.8393002,-0.33154699,0.99751097,0.74002999,-0.072017998,-0.66687101,-0.049508002,-0.38465111,-1.4624953,0.21232063
4666002047840,0.11385661,0,,0.00082718135,-0.0050943369,-0.0014171724,9.8274488,-0.33932099,1.015996,0.740026,-0.072007,-0.66687602,-0.049511001,-0.38450683,-1.4625135,0.21218849
4666004024128,0.1158329,0,,0.00082718135,-0.0050943369,-0.0014171724,9.8274488,-0.33932099,1.015996,0.740026,-0.072007,-0.66687602,-0.049511001,-0.38450683,-1.4625135,0.21218849
4666006030976,0.11783974,0,,0.00082718135,-0.0050943369,-0.0014171724,9.8274488,-0.33932099,1.015996,0.740026,-0.072007,-0.66687602,-0.049511001,-0.38450683,-1.4625135,0.21218849
4666008026688,0.11983546,0,,0.0006915518,-0.0035441179,0.0021667564,9.8809586,-0.44453001,0.975995,0.74002099,-0.072002001,-0.66688299,-0.049506001,-0.38454541,-1.4625323,0.21224096
4666010027488,0.12183626,0,,0.0006915518,-0.0035441179,0.0021667564,9.8809586,-0.44453001,0.975995,0.74002099,-0.072002001,-0.66688299,-0.049506001,-0.38454541,-1.4625323,0.21224096
4666012024640,0.12383341,0,,0.0011292804,0.0021338745,0.0014239618,9.8367758,-0.37509999,1.005697,0.74001902,-0.072010003,-0.66688401,-0.049504001,-0.38468819,-1.4625306,0.21237453
4666014057760,0.12586653,0,,0.0011292804,0.0021338745,0.0014239618,9.8367758,-0.37509999,1.005697,0.74001902,-0.072010003,-0.66688401,-0.049504001,-0.38468819,-1.4625306,0.21237453
4666016023776,0.12783254,0,,0.0011292804,0.0021338745,0.0014239618,9.8367758,-0.37509999,1.005697,0.74001902,-0.072010003,-0.66688401,-0.049504001,-0.38468819,-1.4625306,0.21237453
4666018032096,0.12984086,0,,0.0068615352,0.0040092306,-0.00050522045,9.714962,-0.404015,0.99922699,0.74002701,-0.071998999,-0.66687697,-0.049500998,-0.38453576,-1.4625123,0.21224217
4666020220000,0.13202877,0,,0.0068615352,0.0040092306,-0.00050522045,9.714962,-0.404015,0.99922699,0.74002701,-0.071998999,-0.66687697,-0.049500998,-0.38453576,-1.4625123,0.21224217
4666022054816,0.13386358,0,,0.0041800984,-0.00052738613,0.00086828382,9.6623888,-0.461402,0.96973801,0.74003202,-0.071985997,-0.66687298,-0.049490999,-0.38442764,-1.4624997,0.21216645
4666024047008,0.13585578,0,,0.0041800984,-0.00052738613,0.00086828382,9.6623888,-0.461402,0.96973801,0.74003202,-0.071985997,-0.66687298,-0.049490999,-0.38442764,-1.4624997,0.21216645
4666026048384,0.13785715,0,,0.0041800984,-0.00052738613,0.00086828382,9.6623888,-0.461402,0.96973801,0.74003202,-0.071985997,-0.66687298,-0.049490999,-0.38442764,-1.4624997,0.21216645
4666028038624,0.13984739,0,,-0.0019579452,-0.0027593829,0.0015882147,9.5991831,-0.381322,0.986552,0.74002802,-0.071993999,-0.66687602,-0.049490999,-0.38456875,-1.4625074,0.21229527
4666030055552,0.14186432,0,,-0.0019579452,-0.0027593829,0.0015882147,9.5991831,-0.381322,0.986552,0.74002802,-0.071993999,-0.66687602,-0.049490999,-0.38456875,-1.4625074,0.21229527
4666032057312,0.14386608,0,,0.00016479398,4.2341689e-05,0.00031300735,9.6157274,-0.32972899,0.99975401,0.74002999,-0.071994998,-0.666875,-0.049490999,-0.38457864,-1.4625034,0.21230505
4666034047648,0.14585642,0,,0.00016479398,4.2341689e-05,0.00031300735,9.6157274,-0.32972899,0.99975401,0.74002999,-0.071994998,-0.666875,-0.049490999,-0.38457864,-1.4625034,0.21230505
4666036044640,0.14785341,0,,-0.00079670792,-0.00098925264,0.00049616219,9.6756859,-0.399012,0.96586102,0.740031,-0.071990997,-0.66687399,-0.049490999,-0.38451296,-1.4625014,0.21224557
4666038038560,0.14984733,0,,-0.00079670792,-0.00098925264,0.00049616219,9.6756859,-0.399012,0.96586102,0.740031,-0.071990997,-0.66687399,-0.049490999,-0.38451296,-1.4625014,0.21224557
4666040179136,0.1519879,0,,-0.00079670792,-0.00098925264,0.00049616219,9.6756859,-0.399012,0.96586102,0.740031,-0.071990997,-0.66687399,-0.049490999,-0.38451296,-1.4625014,0.21224557
4666042054400,0.15386317,0,,-0.0042642931,-0.0041745133,0.00019610519,9.8541098,-0.43067399,0.99334198,0.740026,-0.071998999,-0.66687799,-0.049495999,-0.38458653,-1.4625135,0.21230023
4666044034816,0.15584358,0,,-0.0042642931,-0.0041745133,0.00019610519,9.8541098,-0.43067399,0.99334198,0.740026,-0.071998999,-0.66687799,-0.049495999,-0.38458653,-1.4625135,0.21230023
4666046032576,0.15784134,0,,-0.0042642931,-0.0041745133,0.00019610519,9.8541098,-0.43067399,0.99334198,0.740026,-0.071998999,-0.66687799,-0.049495999,-0.38458653,-1.4625135,0.21230023
4666048069344,0.15987811,0,,-0.0017541606,-0.0001878847,0.00049017573,9.9163961,-0.378317,1.012803,0.74002099,-0.072006002,-0.66688198,-0.049502,-0.38464538,-1.4625251,0.21234004
4666050037504,0.16184627,0,,-0.0017541606,-0.0001878847,0.00049017573,9.9163961,-0.378317,1.012803,0.74002099,-0.072006002,-0.66688198,-0.049502,-0.38464538,-1.4625251,0.21234004
4666052032352,0.16384112,0,,-0.0035665977,-0.0019531456,-0.001389125,9.8665895,-0.41431299,0.98948002,0.74002099,-0.072008997,-0.66688102,-0.049509998,-0.38459988,-1.4625244,0.21227939
4666054026016,0.16583478,0,,-0.0035665977,-0.0019531456,-0.001389125,9.8665895,-0.41431299,0.98948002,0.74002099,-0.072008997,-0.66688102,-0.049509998,-0.38459988,-1.4625244,0.21227939
4666056022240,0.16783101,0,,-0.0035665977,-0.0019531456,-0.001389125,9.8665895,-0.41431299,0.98948002,0.74002099,-0.072008997,-0.66688102,-0.049509998,-0.38459988,-1.4625244,0.21227939
4666058027264,0.16983603,0,,-0.00073361421,-0.00014796901,0.00028420942,9.8144016,-0.39496899,0.98306602,0.74001902,-0.072015002,-0.66688299,-0.049513001,-0.38464641,-1.4625288,0.21231413
4666060224352,0.17203312,0,,-0.00073361421,-0.00014796901,0.00028420942,9.8144016,-0.39496899,0.98306602,0.74001902,-0.072015002,-0.66688299,-0.049513001,-0.38464641,-1.4625288,0.21231413
4666062027264,0.17383603,0,,-0.0020024511,0.0020468697,-0.0021778742,9.860919,-0.39751899,0.98223698,0.74002099,-0.072015002,-0.66688001,-0.049518999,-0.3845593,-1.4625244,0.2122183
4666064026144,0.17583491,0,,-0.0020024511,0.0020468697,-0.0021778742,9.860919,-0.39751899,0.98223698,0.74002099,-0.072015002,-0.66688001,-0.049518999,-0.3845593,-1.4625244,0.2122183
4666066033152,0.17784192,0,,-7.1157075e-05,0.0028396506,-0.00047879618,9.8851719,-0.46030399,0.97100198,0.740026,-0.072015002,-0.66687399,-0.049525999,-0.38443449,-1.4625135,0.21208168
4666068018624,0.17982739,0,,-7.1157075e-05,0.0028396506,-0.00047879618,9.8851719,-0.46030399,0.97100198,0.740026,-0.072015002,-0.66687399,-0.049525999,-0.38443449,-1.4625135,0.21208168
4666070017824,0.18182659,0,,-7.1157075e-05,0.0028396506,-0.00047879618,9.8851719,-0.46030399,0.97100198,0.740026,-0.072015002,-0.66687399,-0.049525999,-0.38443449,-1.4625135,0.21208168
4666072012608,0.18382138,0,,-0.0026807559,-0.0046767668,0.0012731478,9.7945986,-0.45450401,0.985973,0.74002397,-0.072024003,-0.666875,-0.049529001,-0.384532,-1.4625166,0.21216209
4666073952160,0.18576093,0,,-0.0026807559,-0.0046767668,0.0012731478,9.7945986,-0.45450401,0.985973,0.74002397,-0.072024003,-0.666875,-0.049529001,-0.384532,-1.4625166,0.21216209
4666076009664,0.18781843,0,,-0.0026807559,-0.0046767668,0.0012731478,9.7945986,-0.45450401,0.985973,0.74002397,-0.072024003,-0.666875,-0.049529001,-0.384532,-1.4625166,0.21216209
4666078024160,0.18983293,0,,-0.0038354133,-0.003495685,-0.0049188788,9.6722927,-0.38171101,0.96439999,0.74001402,-0.072035998,-0.66688401,-0.049541999,-0.38460873,-1.4625411,0.2122049
4666080237504,0.19204627,0,,-0.0038354133,-0.003495685,-0.0049188788,9.6722927,-0.38171101,0.96439999,0.74001402,-0.072035998,-0.66688401,-0.049541999,-0.38460873,-1.4625411,0.2122049
4666082100000,0.19390877,0,,0.0026742109,0.0018931237,-0.0053644787,9.6262026,-0.314702,0.97798902,0.740013,-0.072026998,-0.66688502,-0.049555,-0.38434298,-1.4625531,0.21193253
4666084067232,0.195876,0,,0.0026742109,0.0018931237,-0.0053644787,9.6262026,-0.314702,0.97798902,0.740013,-0.072026998,-0.66688502,-0.049555,-0.38434298,-1.4625531,0.21193253
4666086049792,0.19785856,0,,0.0026742109,0.0018931237,-0.0053644787,9.6262026,-0.314702,0.97798902,0.740013,-0.072026998,-0.66688502,-0.049555,-0.38434298,-1.4625531,0.21193253
4666088042304,0.19985107,0,,0.0070005158,0.00092912599,-0.0013370967,9.6215658,-0.30632699,0.99668598,0.740017,-0.072007,-0.66688299,-0.049555,-0.38405469,-1.4625509,0.21167407
4666090045536,0.2018543,0,,0.0070005158,0.00092912599,-0.0013370967,9.6215658,-0.30632699,0.99668598,0.740017,-0.072007,-0.66688299,-0.049555,-0.38405469,-1.4625509,0.21167407
4666092147904,0.20395667,0,,0.0063247064,-0.00033142058,0.0026311363,9.6403627,-0.343842,0.98040998,0.74001998,-0.071985997,-0.66688299,-0.049543999,-0.38389584,-1.462552,0.21156058
4666094038592,0.20584736,0,,0.0063247064,-0.00033142058,0.0026311363,9.6403627,-0.343842,0.98040998,0.74001998,-0.071985997,-0.66688299,-0.049543999,-0.38389584,-1.462552,0.21156058
4666096052096,0.20786086,0,,0.0015430631,-0.00062971478,0.0077013178,9.6791105,-0.33604899,0.98386198,0.74002099,-0.071981996,-0.66688299,-0.049529001,-0.38401734,-1.4625454,0.21170726
4666098041632,0.2098504,0,,0.0015430631,-0.00062971478,0.0077013178,9.6791105,-0.33604899,0.98386198,0.74002099,-0.071981996,-0.66688299,-0.049529001,-0.38401734,-1.4625454,0.21170726
4666100207296,0.21201606,0,,0.0015430631,-0.00062971478,0.0077013178,9.6791105,-0.33604899,0.98386198,0.74002099,-0.071981996,-0.66688299,-0.049529001,-0.38401734,-1.4625454,0.21170726
4666102030496,0.21383926,0,,-0.0047846982,-0.0035498949,0.0078727089,9.8047161,-0.43552899,0.99514699,0.74002099,-0.071997002,-0.66688198,-0.049520001,-0.38431445,-1.462535,0.21199789
4666104026240,0.21583501,0,,-0.0047846982,-0.0035498949,0.0078727089,9.8047161,-0.43552899,0.99514699,0.74002099,-0.071997002,-0.66688198,-0.049520001,-0.38431445,-1.462535,0.21199789
4666106027808,0.21783658,0,,-0.00011562806,-0.0082661935,0.0034358552,9.8916178,-0.51611197,0.980735,0.74001098,-0.072015002,-0.66689098,-0.049516998,-0.38466383,-1.462552,0.21232601
4666108022112,0.21983088,0,,-0.00011562806,-0.0082661935,0.0034358552,9.8916178,-0.51611197,0.980735,0.74001098,-0.072015002,-0.66689098,-0.049516998,-0.38466383,-1.462552,0.21232601
4666110023488,0.22183226,0,,-0.00011562806,-0.0082661935,0.0034358552,9.8916178,-0.51611197,0.980735,0.74001098,-0.072015002,-0.66689098,-0.049516998,-0.38466383,-1.462552,0.21232601
4666112041280,0.22385005,0,,0.010127343,0.0030880984,-0.00031433379,9.9293909,-0.44227001,1.0195299,0.74000698,-0.072020002,-0.666897,-0.049509,-0.38486157,-1.4625615,0.21252766
4666114132896,0.22594166,0,,0.010127343,0.0030880984,-0.00031433379,9.9293909,-0.44227001,1.0195299,0.74000698,-0.072020002,-0.666897,-0.049509,-0.38486157,-1.4625615,0.21252766
4666116032032,0.2278408,0,,0.010127343,0.0030880984,-0.00031433379,9.9293909,-0.44227001,1.0195299,0.74000698,-0.072020002,-0.666897,-0.049509,-0.38486157,-1.4625615,0.21252766
4666118023232,0.229832,0,,0.0054869488,0.0010127622,-0.0020847609,9.8646297,-0.44589499,0.99294001,0.74001402,-0.072002001,-0.66689098,-0.049497001,-0.38471183,-1.4625448,0.21241959
4666120212928,0.2320217,0,,0.0054869488,0.0010127622,-0.0020847609,9.8646297,-0.44589499,0.99294001,0.74001402,-0.072002001,-0.66689098,-0.049497001,-0.38471183,-1.4625448,0.21241959
4666122028672,0.23383744,0,,-0.00054396678,-0.00094170982,-0.001882739,9.8159351,-0.392261,0.97585499,0.74001402,-0.072001003,-0.66689098,-0.049500998,-0.38466393,-1.4625481,0.21236809
4666124015008,0.23582378,0,,-0.00054396678,-0.00094170982,-0.001882739,9.8159351,-0.392261,0.97585499,0.74001402,-0.072001003,-0.66689098,-0.049500998,-0.38466393,-1.4625481,0.21236809
4666126016864,0.23782563,0,,-0.00054396678,-0.00094170982,-0.001882739,9.8159351,-0.392261,0.97585499,0.74001402,-0.072001003,-0.66689098,-0.049500998,-0.38466393,-1.4625481,0.21236809
4666128029792,0.23983856,0,,0.0033615215,0.0009094911,-0.0049876097,9.7637167,-0.32769999,0.99571198,0.740013,-0.071993999,-0.66689199,-0.049508002,-0.38448496,-1.4625548,0.21218976
4666130020576,0.24182934,0,,0.0033615215,0.0009094911,-0.0049876097,9.7637167,-0.32769999,0.99571198,0.740013,-0.071993999,-0.66689199,-0.049508002,-0.38448496,-1.4625548,0.21218976
4666132013568,0.24382234,0,,-0.00019675097,0.0012209975,0.0024855758,9.7533054,-0.35874099,0.98408902,0.74001598,-0.071983002,-0.66689003,-0.049508002,-0.38431745,-1.4625527,0.21203686
4666134010912,0.24581968,0,,-0.00019675097,0.0012209975,0.0024855758,9.7533054,-0.35874099,0.98408902,0.74001598,-0.071983002,-0.66689003,-0.049508002,-0.38431745,-1.4625527,0.21203686
4666136050528,0.2478593,0,,-0.00019675097,0.0012209975,0.0024855758,9.7533054,-0.35874099,0.98408902,0.74001598,-0.071983002,-0.66689003,-0.049508002,-0.38431745,-1.4625527,0.21203686
4666138043744,0.24985251,0,,0.0011725122,-0.0011883598,0.00057758184,9.7665024,-0.41501299,0.992948,0.740017,-0.071983002,-0.66688901,-0.049504999,-0.3843507,-1.4625509,0.21207343
4666140110592,0.25191936,0,,0.0011725122,-0.0011883598,0.00057758184,9.7665024,-0.41501299,0.992948,0.740017,-0.071983002,-0.66688901,-0.049504999,-0.3843507,-1.4625509,0.21207343
4666142043488,0.25385226,0,,0.0050036147,0.00067697828,0.00094575898,9.7792692,-0.44642499,0.98913997,0.740017,-0.071981996,-0.66689003,-0.0495,-0.38440214,-1.4625504,0.21213549
4666144053152,0.25586192,0,,0.0050036147,0.00067697828,0.00094575898,9.7792692,-0.44642499,0.98913997,0.740017,-0.071981996,-0.66689003,-0.0495,-0.38440214,-1.4625504,0.21213549
4666146046240,0.25785501,0,,0.0050036147,0.00067697828,0.00094575898,9.7792692,-0.44642499,0.98913997,0.740017,-0.071981996,-0.66689003,-0.0495,-0.38440214,-1.4625504,0.21213549
4666148118304,0.25992707,0,,0.0024881763,0.0020081759,-0.0033538771,9.7155867,-0.39214998,0.98278803,0.74002099,-0.071975,-0.66688699,-0.049497001,-0.38430533,-1.4625428,0.21205164
4666150071392,0.26188016,0,,0.0024881763,0.0020081759,-0.0033538771,9.7155867,-0.39214998,0.98278803,0.74002099,-0.071975,-0.66688699,-0.049497001,-0.38430533,-1.4625428,0.21205164
4666152037344,0.26384611,0,,0.0017895036,-0.00035342917,-0.003178489,9.6084156,-0.353118,0.98300898,0.74002099,-0.071966998,-0.66688597,-0.049506001,-0.38410656,-1.462546,0.21185165
4666154036928,0.2658457,0,,0.0017895036,-0.00035342917,-0.003178489,9.6084156,-0.353118,0.98300898,0.74002099,-0.071966998,-0.66688597,-0.049506001,-0.38410656,-1.462546,0.21185165
4666156029088,0.26783786,0,,0.0017895036,-0.00035342917,-0.003178489,9.6084156,-0.353118,0.98300898,0.74002099,-0.071966998,-0.66688597,-0.049506001,-0.38410656,-1.462546,0.21185165
4666158056800,0.26986557,0,,0.0012974428,-0.00034726818,0.0010678273,9.6390934,-0.34595901,0.981996,0.74002099,-0.071958996,-0.66688699,-0.049502999,-0.38403465,-1.4625509,0.21179414
4666160194464,0.27200323,0,,0.0012974428,-0.00034726818,0.0010678273,9.6390934,-0.34595901,0.981996,0.74002099,-0.071958996,-0.66688699,-0.049502999,-0.38403465,-1.4625509,0.21179414
4666162028160,0.27383693,0,,-0.00085444338,0.0011688295,0.0037615686,9.7151976,-0.341663,0.984299,0.74002397,-0.071960002,-0.66688401,-0.049499001,-0.38407423,-1.4625384,0.21183835
4666164020544,0.27582931,0,,-0.00085444338,0.0011688295,0.0037615686,9.7151976,-0.341663,0.984299,0.74002397,-0.071960002,-0.66688401,-0.049499001,-0.38407423,-1.4625384,0.21183835
4666166035712,0.27784448,0,,-0.00085444338,0.0011688295,0.0037615686,9.7151976,-0.341663,0.984299,0.74002397,-0.071960002,-0.66688401,-0.049499001,-0.38407423,-1.4625384,0.21183835
4666168050368,0.27985914,0,,-0.00085444338,0.0011688295,0.0037615686,9.7151976,-0.341663,0.984299,0.74002397,-0.071960002,-0.66688401,-0.049499001,-0.38407423,-1.4625384,0.21183835
4666170023296,0.28183206,0,,-0.00085444338,0.0011688295,0.0037615686,9.7151976,-0.341663,0.984299,0.74002397,-0.071960002,-0.66688401,-0.049499001,-0.38407423,-1.4625384,0.21183835
4666172018656,0.28382742,0,,-0.0011172201,-0.0039160127,0.0023559675,9.8523598,-0.43472701,0.97265702,0.74001998,-0.071966998,-0.66688901,-0.049490999,-0.38429351,-1.4625454,0.21205856
4666174017920,0.28582669,0,,-0.0011172201,-0.0039160127,0.0023559675,9.8523598,-0.43472701,0.97265702,0.74001998,-0.071966998,-0.66688901,-0.049490999,-0.38429351,-1.4625454,0.21205856
4666176031232,0.28784,0,,-0.0011172201,-0.0039160127,0.0023559675,9.8523598,-0.43472701,0.97265702,0.74001998,-0.071966998,-0.66688901,-0.049490999,-0.38429351,-1.4625454,0.21205856
4666178041984,0.28985075,0,,-0.0022699753,-0.0010282957,-0.00018901916,9.8678522,-0.43249601,0.98137301,0.74001598,-0.071975,-0.66689199,-0.049493998,-0.38439355,-1.4625531,0.21214497
4666180215232,0.292024,0,,-0.0022699753,-0.0010282957,-0.00018901916,9.8678522,-0.43249601,0.98137301,0.74001598,-0.071975,-0.66689199,-0.049493998,-0.38439355,-1.4625531,0.21214497
4666182018464,0.29382723,0,,0.00030702086,-0.00065882691,0.00035875244,9.8478289,-0.40931299,0.98769099,0.74001402,-0.071980998,-0.66689301,-0.049497999,-0.38443699,-1.462558,0.21217358
4666184010432,0.2958192,0,,0.00030702086,-0.00065882691,0.00035875244,9.8478289,-0.40931299,0.98769099,0.74001402,-0.071980998,-0.66689301,-0.049497999,-0.38443699,-1.462558,0.21217358
4666186031328,0.2978401,0,,-0.0044106213,-0.0035019856,-0.0015447037,9.8290148,-0.403797,0.97733897,0.74001199,-0.071984999,-0.66689497,-0.049500998,-0.38446668,-1.4625636,0.2121922
4666188005696,0.29981446,0,,-0.0044106213,-0.0035019856,-0.0015447037,9.8290148,-0.403797,0.97733897,0.74001199,-0.071984999,-0.66689497,-0.049500998,-0.38446668,-1.4625636,0.2121922
4666190009280,0.30181805,0,,-0.0044106213,-0.0035019856,-0.0015447037,9.8290148,-0.403797,0.97733897,0.74001199,-0.071984999,-0.66689497,-0.049500998,-0.38446668,-1.4625636,0.2121922
4666192097792,0.30390656,0,,-0.0037389141,0.0010980739,-0.0013133254,9.7733841,-0.35672998,0.97801501,0.74000698,-0.071992002,-0.66689801,-0.049513999,-0.38444059,-1.4625757,0.21213909
4666194041280,0.30585005,0,,-0.0037389141,0.0010980739,-0.0013133254,9.7733841,-0.35672998,0.97801501,0.74000698,-0.071992002,-0.66689801,-0.049513999,-0.38444059,-1.4625757,0.21213909
4666196032160,0.30784093,0,,-0.0037389141,0.0010980739,-0.0013133254,9.7733841,-0.35672998,0.97801501,0.74000698,-0.071992002,-0.66689801,-0.049513999,-0.38444059,-1.4625757,0.21213909
4666198032512,0.30984128,0,,0.0027067438,0.0013085257,-0.0017619796,9.784915,-0.38061401,0.98973203,0.740008,-0.071989,-0.666897,-0.049520001,-0.38432267,-1.4625781,0.2120156
4666200217280,0.31202605,0,,0.0027067438,0.0013085257,-0.0017619796,9.784915,-0.38061401,0.98973203,0.740008,-0.071989,-0.666897,-0.049520001,-0.38432267,-1.4625781,0.2120156
4666202063072,0.31387184,0,,0.00081613339,-0.003278182,-0.0021307678,9.8009729,-0.418594,0.98146802,0.74000597,-0.071978003,-0.66690099,-0.049520001,-0.38419248,-1.4625885,0.2119019
4666204036768,0.31584554,0,,0.00081613339,-0.003278182,-0.0021307678,9.8009729,-0.418594,0.98146802,0.74000597,-0.071978003,-0.66690099,-0.049520001,-0.38419248,-1.4625885,0.2119019
4666206044192,0.31785296,0,,0.00038599701,-0.005920785,-0.0025441316,9.7414455,-0.38839799,0.99258,0.739999,-0.071975,-0.66690898,-0.049525999,-0.38414907,-1.4626129,0.21185493
4666208029632,0.3198384,0,,0.00038599701,-0.005920785,-0.0025441316,9.7414455,-0.38839799,0.99258,0.739999,-0.071975,-0.66690898,-0.049525999,-0.38414907,-1.4626129,0.21185493
4666210035008,0.32184378,0,,0.00038599701,-0.005920785,-0.0025441316,9.7414455,-0.38839799,0.99258,0.739999,-0.071975,-0.66690898,-0.049525999,-0.38414907,-1.4626129,0.21185493
4666212029184,0.32383795,0,,0.0014321822,-0.0022356096,-0.0002150071,9.6608868,-0.355425,1.013576,0.73999101,-0.071971998,-0.66691703,-0.049529001,-0.38413023,-1.4626366,0.21183539
4666214066496,0.32587526,0,,0.0014321822,-0.0022356096,-0.0002150071,9.6608868,-0.355425,1.013576,0.73999101,-0.071971998,-0.66691703,-0.049529001,-0.38413023,-1.4626366,0.21183539
4666216027424,0.32783619,0,,0.0026603705,0.00040500364,0.00044669956,9.6221342,-0.319408,1.017409,0.73999202,-0.071966998,-0.66691703,-0.049525,-0.38411019,-1.4626366,0.2118295
4666218030368,0.32983914,0,,0.0026603705,0.00040500364,0.00044669956,9.6221342,-0.319408,1.017409,0.73999202,-0.071966998,-0.66691703,-0.049525,-0.38411019,-1.4626366,0.2118295
4666220192544,0.33200131,0,,0.0026603705,0.00040500364,0.00044669956,9.6221342,-0.319408,1.017409,0.73999202,-0.071966998,-0.66691703,-0.049525,-0.38411019,-1.4626366,0.2118295
4666222049344,0.33385811,0,,-0.0041449476,0.00085636325,0.0034521741,9.5954981,-0.419103,0.96225297,0.73999798,-0.071961001,-0.66691202,-0.049525999,-0.38397943,-1.4626243,0.21170541
4666224024640,0.33583341,0,,-0.0041449476,0.00085636325,0.0034521741,9.5954981,-0.419103,0.96225297,0.73999798,-0.071961001,-0.66691202,-0.049525999,-0.38397943,-1.4626243,0.21170541
4666226027744,0.33783651,0,,-0.0057866563,-0.0025529281,0.0058797697,9.6884136,-0.41754401,0.997159,0.73999602,-0.071983002,-0.66691101,-0.049527001,-0.38425936,-1.4626161,0.21195254
4666228026432,0.3398352,0,,-0.0057866563,-0.0025529281,0.0058797697,9.6884136,-0.41754401,0.997159,0.73999602,-0.071983002,-0.66691101,-0.049527001,-0.38425936,-1.4626161,0.21195254
4666230015296,0.34182406,0,,-0.0057866563,-0.0025529281,0.0058797697,9.6884136,-0.41754401,0.997159,0.73999602,-0.071983002,-0.66691101,-0.049527001,-0.38425936,-1.4626161,0.21195254
4666232010592,0.34381936,0,,0.0030949576,-0.00078642789,0.004217972,9.821166,-0.39036798,1.013129,0.73999399,-0.071994998,-0.66691297,-0.049520001,-0.38450733,-1.4626155,0.21219249
4666234011744,0.34582051,0,,0.0030949576,-0.00078642789,0.004217972,9.821166,-0.39036798,1.013129,0.73999399,-0.071994998,-0.66691297,-0.049520001,-0.38450733,-1.4626155,0.21219249
4666236018784,0.34782755,0,,0.00064662702,0.0028694609,0.003451947,9.976346,-0.52649701,0.99625701,0.739999,-0.071996003,-0.66690701,-0.049511999,-0.38457314,-1.4625974,0.21226927
4666238009632,0.3498184,0,,0.00064662702,0.0028694609,0.003451947,9.976346,-0.52649701,0.99625701,0.739999,-0.071996003,-0.66690701,-0.049511999,-0.38457314,-1.4625974,0.21226927
4666240239104,0.35204787,0,,0.00064662702,0.0028694609,0.003451947,9.976346,-0.52649701,0.99625701,0.739999,-0.071996003,-0.66690701,-0.049511999,-0.38457314,-1.4625974,0.21226927
4666242036160,0.35384493,0,,-0.0011081445,-0.00018160151,0.00057079247,9.9377098,-0.52627897,0.99343097,0.74000198,-0.072010003,-0.66690302,-0.049513999,-0.38471752,-1.4625808,0.21239018
4666244015776,0.35582454,0,,-0.0011081445,-0.00018160151,0.00057079247,9.9377098,-0.52627897,0.99343097,0.74000198,-0.072010003,-0.66690302,-0.049513999,-0.38471752,-1.4625808,0.21239018
4666246008096,0.35781686,0,,-0.0011081445,-0.00018160151,0.00057079247,9.9377098,-0.52627897,0.99343097,0.74000198,-0.072010003,-0.66690302,-0.049513999,-0.38471752,-1.4625808,0.21239018
4666248012128,0.3598209,0,,0.0049976283,-0.00031236159,-0.0039780766,9.8092165,-0.35794699,0.99484199,0.74000001,-0.072013997,-0.66690397,-0.049515001,-0.38475747,-1.4625852,0.2124234
4666250008032,0.3618168,0,,0.0049976283,-0.00031236159,-0.0039780766,9.8092165,-0.35794699,0.99484199,0.74000001,-0.072013997,-0.66690397,-0.049515001,-0.38475747,-1.4625852,0.2124234
4666252041216,0.36384998,0,,0.0034689291,-0.0012443151,-0.0024380155,9.7695055,-0.27318701,0.99071801,0.739999,-0.071996003,-0.66690701,-0.049516,-0.3845322,-1.4625968,0.21222165
4666254039744,0.36584851,0,,0.0034689291,-0.0012443151,-0.0024380155,9.7695055,-0.27318701,0.99071801,0.739999,-0.071996003,-0.66690701,-0.049516,-0.3845322,-1.4625968,0.21222165
4666256037568,0.36784634,0,,0.0034689291,-0.0012443151,-0.0024380155,9.7695055,-0.27318701,0.99071801,0.739999,-0.071996003,-0.66690701,-0.049516,-0.3845322,-1.4625968,0.21222165
4666258078016,0.36988678,0,,0.004020017,0.0036177709,-0.00024586453,9.7536993,-0.32446101,0.98187697,0.74000299,-0.071979001,-0.66690499,-0.049513001,-0.38430996,-1.4625945,0.21202792
4666260194656,0.37200342,0,,0.004020017,0.0036177709,-0.00024586453,9.7536993,-0.32446101,0.98187697,0.74000299,-0.071979001,-0.66690499,-0.049513001,-0.38430996,-1.4625945,0.21202792
4666262031072,0.37383984,0,,0.0057363564,0.00022732913,0.00037398916,9.7301836,-0.376212,0.97915298,0.74000901,-0.071961999,-0.66689998,-0.049508002,-0.38411268,-1.4625856,0.21186172
4666264023616,0.37583238,0,,0.0057363564,0.00022732913,0.00037398916,9.7301836,-0.376212,0.97915298,0.74000901,-0.071961999,-0.66689998,-0.049508002,-0.38411268,-1.4625856,0.21186172
4666266027968,0.37783674,0,,0.0057363564,0.00022732913,0.00037398916,9.7301836,-0.376212,0.97915298,0.74000901,-0.071961999,-0.66689998,-0.049508002,-0.38411268,-1.4625856,0.21186172
4666268020128,0.3798289,0,,-0.0036525377,-0.004057489,0.0038827817,9.7363539,-0.422755,0.96258599,0.74000597,-0.071962997,-0.66690397,-0.049504001,-0.38420639,-1.4625924,0.21196014
4666270023808,0.38183258,0,,-0.0036525377,-0.004057489,0.0038827817,9.7363539,-0.422755,0.96258599,0.74000597,-0.071962997,-0.66690397,-0.049504001,-0.38420639,-1.4625924,0.21196014
4666272037664,0.38384643,0,,-0.0065011419,-0.001264142,0.00050413834,9.734271,-0.41495001,0.96290797,0.74000001,-0.071981996,-0.66690701,-0.049509998,-0.38440843,-1.4625989,0.21212639
4666274043616,0.38585238,0,,-0.0065011419,-0.001264142,0.00050413834,9.734271,-0.41495001,0.96290797,0.74000001,-0.071981996,-0.66690701,-0.049509998,-0.38440843,-1.4625989,0.21212639
4666276033408,0.38784218,0,,-0.0065011419,-0.001264142,0.00050413834,9.734271,-0.41495001,0.96290797,0.74000001,-0.071981996,-0.66690701,-0.049509998,-0.38440843,-1.4625989,0.21212639
4666278018848,0.38982762,0,,-0.0027461186,-0.0059209249,-0.00094441511,9.6804314,-0.401357,0.98492301,0.739995,-0.071989,-0.66691202,-0.049520001,-0.38442308,-1.4626143,0.21211734
4666280193760,0.39200253,0,,-0.0027461186,-0.0059209249,-0.00094441511,9.6804314,-0.401357,0.98492301,0.739995,-0.071989,-0.66691202,-0.049520001,-0.38442308,-1.4626143,0.21211734
4666282058112,0.39386688,0,,-0.002425676,-0.00075291758,-8.6603239e-05,9.6402235,-0.32377699,0.98473698,0.73998898,-0.071994998,-0.66691798,-0.049527001,-0.38446862,-1.4626339,0.21214373
4666284052320,0.39586109,0,,-0.002425676,-0.00075291758,-8.6603239e-05,9.6402235,-0.32377699,0.98473698,0.73998898,-0.071994998,-0.66691798,-0.049527001,-0.38446862,-1.4626339,0.21214373
4666286034912,0.39784368,0,,-0.00068512901,-0.0030198559,0.0058072865,9.6780605,-0.29879799,0.985479,0.73998702,-0.071998,-0.66691899,-0.049525999,-0.384531,-1.4626322,0.21220331
4666288019744,0.39982851,0,,-0.00068512901,-0.0030198559,0.0058072865,9.6780605,-0.29879799,0.985479,0.73998702,-0.071998,-0.66691899,-0.049525999,-0.384531,-1.4626322,0.21220331
4666290047712,0.40185648,0,,-0.00068512901,-0.0030198559,0.0058072865,9.6780605,-0.29879799,0.985479,0.73998702,-0.071998,-0.66691899,-0.049525999,-0.384531,-1.4626322,0.21220331
4666292102656,0.40391142,0,,-9.1909039e-05,-0.0031425176,0.0050209455,9.7735891,-0.35826701,0.98798501,0.73998201,-0.071999997,-0.66692501,-0.049516998,-0.3847103,-1.4626427,0.21239306
4666294017568,0.40582634,0,,-9.1909039e-05,-0.0031425176,0.0050209455,9.7735891,-0.35826701,0.98798501,0.73998201,-0.071999997,-0.66692501,-0.049516998,-0.3847103,-1.4626427,0.21239306
4666296016800,0.40782557,0,,-9.1909039e-05,-0.0031425176,0.0050209455,9.7735891,-0.35826701,0.98798501,0.73998201,-0.071999997,-0.66692501,-0.049516998,-0.3847103,-1.4626427,0.21239306
4666298014560,0.40982333,0,,-0.00269231,-0.004733333,0.0068912404,9.8856707,-0.436263,0.99048698,0.739977,-0.072010003,-0.66693097,-0.049508002,-0.38498597,-1.462652,0.21266716
4666300229920,0.41203869,0,,-0.00269231,-0.004733333,0.0068912404,9.8856707,-0.436263,0.99048698,0.739977,-0.072010003,-0.66693097,-0.049508002,-0.38498597,-1.462652,0.21266716
4666302036800,0.41384557,0,,-0.0042827238,-0.0022675667,0.0041730821,9.9432697,-0.479617,0.99038297,0.73997098,-0.07203,-0.66693598,-0.049506001,-0.38531667,-1.4626581,0.21297314
4666304011392,0.41582016,0,,-0.0042827238,-0.0022675667,0.0041730821,9.9432697,-0.479617,0.99038297,0.73997098,-0.07203,-0.66693598,-0.049506001,-0.38531667,-1.4626581,0.21297314
4666306033984,0.41784275,0,,-0.0042827238,-0.0022675667,0.0041730821,9.9432697,-0.479617,0.99038297,0.73997098,-0.07203,-0.66693598,-0.049506001,-0.38531667,-1.4626581,0.21297314
4666308013152,0.41982192,0,,-0.0038180648,-5.4471726e-05,0.00025103071,9.9592457,-0.52007902,0.98747498,0.73996902,-0.072048001,-0.66693503,-0.049509,-0.38552396,-1.4626497,0.21314924
4666310056384,0.42186515,0,,-0.0038180648,-5.4471726e-05,0.00025103071,9.9592457,-0.52007902,0.98747498,0.73996902,-0.072048001,-0.66693503,-0.049509,-0.38552396,-1.4626497,0.21314924
4666312038592,0.42384736,0,,-0.0020165185,0.0011480252,-0.0073568421,9.8689051,-0.441753,1.015255,0.73996902,-0.072057001,-0.666933,-0.049520999,-0.3854964,-1.4626488,0.21309189
4666314143904,0.42595267,0,,-0.0020165185,0.0011480252,-0.0073568421,9.8689051,-0.441753,1.015255,0.73996902,-0.072057001,-0.666933,-0.049520999,-0.3854964,-1.4626488,0.21309189
4666316043680,0.42785245,0,,-0.0020165185,0.0011480252,-0.0073568421,9.8689051,-0.441753,1.015255,0.73996902,-0.072057001,-0.666933,-0.049520999,-0.3854964,-1.4626488,0.21309189
4666318039680,0.42984845,0,,0.0012747012,0.00056695273,-0.0050591858,9.6191311,-0.347489,1.0064631,0.73997098,-0.072050996,-0.66693097,-0.049538001,-0.38519513,-1.4626541,0.21277613
4666320194496,0.43200326,0,,0.0012747012,0.00056695273,-0.0050591858,9.6191311,-0.347489,1.0064631,0.73997098,-0.072050996,-0.66693097,-0.049538001,-0.38519513,-1.4626541,0.21277613
4666322051744,0.43386051,0,,0.0025432065,-0.0024750166,-0.00035854298,9.6573563,-0.37657401,0.973665,0.739972,-0.072038002,-0.66693097,-0.049538001,-0.38501223,-1.4626581,0.21261162
4666324033856,0.43584262,0,,0.0025432065,-0.0024750166,-0.00035854298,9.6573563,-0.37657401,0.973665,0.739972,-0.072038002,-0.66693097,-0.049538001,-0.38501223,-1.4626581,0.21261162
4666326035712,0.43784448,0,,0.0062987885,-0.0006521772,0.0017677218,9.7274475,-0.36517999,0.98613799,0.73996997,-0.072030999,-0.66693401,-0.049532998,-0.38500844,-1.4626669,0.21262577
4666328027424,0.43983619,0,,0.0062987885,-0.0006521772,0.0017677218,9.7274475,-0.36517999,0.98613799,0.73996997,-0.072030999,-0.66693401,-0.049532998,-0.38500844,-1.4626669,0.21262577
4666330029792,0.44183856,0,,0.0062987885,-0.0006521772,0.0017677218,9.7274475,-0.36517999,0.98613799,0.73996997,-0.072030999,-0.66693401,-0.049532998,-0.38500844,-1.4626669,0.21262577
4666332090240,0.44389901,0,,0.0034549142,0.00040976839,0.0027346342,9.7287359,-0.41343901,1.0332021,0.739972,-0.072024003,-0.66693401,-0.049522001,-0.38504116,-1.462662,0.21268379
4666334053664,0.44586243,0,,0.0034549142,0.00040976839,0.0027346342,9.7287359,-0.41343901,1.0332021,0.739972,-0.072024003,-0.66693401,-0.049522001,-0.38504116,-1.462662,0.21268379
4666336017504,0.44782627,0,,0.0034549142,0.00040976839,0.0027346342,9.7287359,-0.41343901,1.0332021,0.739972,-0.072024003,-0.66693401,-0.049522001,-0.38504116,-1.462662,0.21268379
4666338028384,0.44983715,0,,-0.00033283428,-0.00092851515,0.00025932102,9.7187252,-0.37941101,0.97645801,0.73997599,-0.072022997,-0.66693002,-0.049513999,-0.38508667,-1.462648,0.21274088
4666340237312,0.45204608,0,,-0.00033283428,-0.00092851515,0.00025932102,9.7187252,-0.37941101,0.97645801,0.73997599,-0.072022997,-0.66693002,-0.049513999,-0.38508667,-1.462648,0.21274088
4666342017472,0.45382624,0,,-0.0040448179,-0.0052847347,0.0025505892,9.6886587,-0.42917499,0.966313,0.73996902,-0.072030999,-0.66693699,-0.049518,-0.38520232,-1.462664,0.21284032
4666344006784,0.45581555,0,,-0.0040448179,-0.0052847347,0.0025505892,9.6886587,-0.42917499,0.966313,0.73996902,-0.072030999,-0.66693699,-0.049518,-0.38520232,-1.462664,0.21284032
4666346053248,0.45786202,0,,-0.0061412375,-0.0085238387,0.0010724874,9.858758,-0.49290401,0.997765,0.73995697,-0.072048999,-0.66694802,-0.049520999,-0.38549257,-1.4626906,0.21310027
4666348065376,0.45987414,0,,-0.0061412375,-0.0085238387,0.0010724874,9.858758,-0.49290401,0.997765,0.73995697,-0.072048999,-0.66694802,-0.049520999,-0.38549257,-1.4626906,0.21310027
4666350031616,0.46184038,0,,-0.0061412375,-0.0085238387,0.0010724874,9.858758,-0.49290401,0.997765,0.73995697,-0.072048999,-0.66694802,-0.049520999,-0.38549257,-1.4626906,0.21310027
4666352020576,0.46382934,0,,-0.0051146701,-0.0041683699,-0.0015425743,9.8488035,-0.32252499,1.02702,0.73994601,-0.072067998,-0.66695601,-0.049529999,-0.38570998,-1.4627121,0.21327736
4666354041216,0.46584998,0,,-0.0051146701,-0.0041683699,-0.0015425743,9.8488035,-0.32252499,1.02702,0.73994601,-0.072067998,-0.66695601,-0.049529999,-0.38570998,-1.4627121,0.21327736
4666356009280,0.46781805,0,,-0.0051146701,-0.0041683699,-0.0015425743,9.8488035,-0.32252499,1.02702,0.73994601,-0.072067998,-0.66695601,-0.049529999,-0.38570998,-1.4627121,0.21327736
4666358001088,0.46980986,0,,-0.0014861129,-0.0016872272,0.0013845348,9.6647301,-0.274863,1.001412,0.73994303,-0.072067998,-0.66696,-0.049534999,-0.38568282,-1.4627243,0.2132441
4666360191040,0.47199981,0,,-0.0014861129,-0.0016872272,0.0013845348,9.6647301,-0.274863,1.001412,0.73994303,-0.072067998,-0.66696,-0.049534999,-0.38568282,-1.4627243,0.2132441
4666362038496,0.47384726,0,,0.00088174032,0.0035143076,0.0033638778,9.7132282,-0.36359501,0.91568899,0.73994499,-0.072066002,-0.66695797,-0.049532998,-0.38565242,-1.4627171,0.21321975
4666363994368,0.47580314,0,,0.00088174032,0.0035143076,0.0033638778,9.7132282,-0.36359501,0.91568899,0.73994499,-0.072066002,-0.66695797,-0.049532998,-0.38565242,-1.4627171,0.21321975
4666365992928,0.4778017,0,,0.00088174032,0.0035143076,0.0033638778,9.7132282,-0.36359501,0.91568899,0.73994499,-0.072066002,-0.66695797,-0.049532998,-0.38565242,-1.4627171,0.21321975
4666368022816,0.47983158,0,,0.006162147,0.0093601832,0.0039694546,9.9025745,-0.44962901,0.96909398,0.73995501,-0.072063997,-0.66694802,-0.049525,-0.38563994,-1.4626885,0.21322058
4666370020064,0.48182883,0,,0.006162147,0.0093601832,0.0039694546,9.9025745,-0.44962901,0.96909398,0.73995501,-0.072063997,-0.66694802,-0.049525,-0.38563994,-1.4626885,0.21322058
4666372023616,0.48383238,0,,0.0065806071,0.0017301448,0.0052612953,9.9506941,-0.42899001,1.017231,0.73996598,-0.072063997,-0.66693699,-0.049509,-0.38575652,-1.4626525,0.21336082
4666374020352,0.48582912,0,,0.0065806071,0.0017301448,0.0052612953,9.9506941,-0.42899001,1.017231,0.73996598,-0.072063997,-0.66693699,-0.049509,-0.38575652,-1.4626525,0.21336082
4666376015776,0.48782454,0,,0.0065806071,0.0017301448,0.0052612953,9.9506941,-0.42899001,1.017231,0.73996598,-0.072063997,-0.66693699,-0.049509,-0.38575652,-1.4626525,0.21336082
4666378019104,0.48982787,0,,0.0071626914,0.0017053612,4.8781954e-05,9.8208475,-0.43860099,0.93056899,0.739972,-0.072056003,-0.66693199,-0.049492002,-0.38580639,-1.4626322,0.21344404
4666380220416,0.49202918,0,,0.0071626914,0.0017053612,4.8781954e-05,9.8208475,-0.43860099,0.93056899,0.739972,-0.072056003,-0.66693199,-0.049492002,-0.38580639,-1.4626322,0.21344404
4666382021792,0.49383056,0,,0.0011488804,-0.00071256555,-0.0061524951,9.7405882,-0.34604499,0.96299601,0.73997098,-0.072048999,-0.66693503,-0.049493,-0.38571534,-1.4626431,0.21336296
4666384011072,0.49581984,0,,0.0011488804,-0.00071256555,-0.0061524951,9.7405882,-0.34604499,0.96299601,0.73997098,-0.072048999,-0.66693503,-0.049493,-0.38571534,-1.4626431,0.21336296
4666386015168,0.49782394,0,,0.0011488804,-0.00071256555,-0.0061524951,9.7405882,-0.34604499,0.96299601,0.73997098,-0.072048999,-0.66693503,-0.049493,-0.38571534,-1.4626431,0.21336296
4666388033408,0.49984218,0,,-0.0045978956,-0.00024190264,-0.0052062646,9.7291527,-0.33302599,1.0123661,0.73996902,-0.072039999,-0.66693598,-0.049511999,-0.38539676,-1.4626575,0.2130304
4666390017376,0.50182614,0,,-0.0045978956,-0.00024190264,-0.0052062646,9.7291527,-0.33302599,1.0123661,0.73996902,-0.072039999,-0.66693598,-0.049511999,-0.38539676,-1.4626575,0.2130304
4666392078880,0.50388765,0,,-0.0049490381,-0.0026933222,0.00036864843,9.6990852,-0.33081901,1.007664,0.739968,-0.072038002,-0.66693598,-0.049523998,-0.38522888,-1.4626652,0.21284704
4666394020736,0.5058295,0,,-0.0049490381,-0.0026933222,0.00036864843,9.6990852,-0.33081901,1.007664,0.739968,-0.072038002,-0.66693598,-0.049523998,-0.38522888,-1.4626652,0.21284704
4666396012992,0.50782176,0,,-0.0049490381,-0.0026933222,0.00036864843,9.6990852,-0.33081901,1.007664,0.739968,-0.072038002,-0.66693598,-0.049523998,-0.38522888,-1.4626652,0.21284704
4666398016864,0.50982563,0,,-0.0020601517,-0.0037102908,0.0043130227,9.6267824,-0.38674799,0.99837703,0.739963,-0.072044,-0.66693997,-0.049525999,-0.38531753,-1.4626745,0.21292487
4666400204064,0.51201283,0,,-0.0020601517,-0.0037102908,0.0043130227,9.6267824,-0.38674799,0.99837703,0.739963,-0.072044,-0.66693997,-0.049525999,-0.38531753,-1.4626745,0.21292487
4666402074944,0.51388371,0,,-0.0051475866,-0.0012901997,0.0028071177,9.64326,-0.40315601,0.97743601,0.73996097,-0.072058,-0.666942,-0.049525999,-0.38551018,-1.4626752,0.21309774
4666404035392,0.51584416,0,,-0.0051475866,-0.0012901997,0.0028071177,9.64326,-0.40315601,0.97743601,0.73996097,-0.072058,-0.666942,-0.049525999,-0.38551018,-1.4626752,0.21309774
4666406009888,0.51781866,0,,-0.0051475866,-0.0012901997,0.0028071177,9.64326,-0.40315601,0.97743601,0.73996097,-0.072058,-0.666942,-0.049525999,-0.38551018,-1.4626752,0.21309774
4666407997376,0.51980614,0,,-0.002670406,0.0010988069,0.0046578651,9.7629061,-0.49532899,1.007066,0.73996097,-0.072071999,-0.66694099,-0.049525999,-0.38568914,-1.4626689,0.21325767
4666410000288,0.52180906,0,,-0.002670406,0.0010988069,0.0046578651,9.7629061,-0.49532899,1.007066,0.73996097,-0.072071999,-0.66694099,-0.049525999,-0.38568914,-1.4626689,0.21325767
4666411993376,0.52380214,0,,-0.00073078681,-0.00086957541,0.0019044335,9.850812,-0.47319701,1.026819,0.73996401,-0.072086997,-0.66693503,-0.049523998,-0.38588652,-1.462648,0.21343617
4666414009376,0.52581814,0,,-0.00073078681,-0.00086957541,0.0019044335,9.850812,-0.47319701,1.026819,0.73996401,-0.072086997,-0.66693503,-0.049523998,-0.38588652,-1.462648,0.21343617
4666415990784,0.52779955,0,,-0.0022828209,0.00029897491,0.00056306065,9.8397341,-0.42241099,0.97666597,0.73996502,-0.072098002,-0.66693401,-0.049520999,-0.38605063,-1.462641,0.2135893
4666417998240,0.52980701,0,,-0.0022828209,0.00029897491,0.00056306065,9.8397341,-0.42241099,0.97666597,0.73996502,-0.072098002,-0.66693401,-0.049520999,-0.38605063,-1.462641,0.2135893
4666420192320,0.53200109,0,,-0.0022828209,0.00029897491,0.00056306065,9.8397341,-0.42241099,0.97666597,0.73996502,-0.072098002,-0.66693401,-0.049520999,-0.38605063,-1.462641,0.2135893
4666421988736,0.5337975,0,,0.000320233,0.00043994514,-0.0039783034,9.8572483,-0.460949,0.98764998,0.73996598,-0.072098002,-0.66693199,-0.049531002,-0.38591621,-1.4626399,0.21344033
4666424019232,0.535828,0,,0.000320233,0.00043994514,-0.0039783034,9.8572483,-0.460949,0.98764998,0.73996598,-0.072098002,-0.66693199,-0.049531002,-0.38591621,-1.4626399,0.21344033
4666426036928,0.5378457,0,,0.0067302512,-0.0033498977,-0.0035595291,9.833951,-0.36814499,1.0093,0.73996502,-0.072090998,-0.66693401,-0.049534,-0.38580752,-1.4626476,0.21333753
4666428022560,0.53983133,0,,0.0067302512,-0.0033498977,-0.0035595291,9.833951,-0.36814499,1.0093,0.73996502,-0.072090998,-0.66693401,-0.049534,-0.38580752,-1.4626476,0.21333753
4666430026400,0.54183517,0,,0.0067302512,-0.0033498977,-0.0035595291,9.833951,-0.36814499,1.0093,0.73996502,-0.072090998,-0.66693401,-0.049534,-0.38580752,-1.4626476,0.21333753
4666432019744,0.54382851,0,,0.0048896272,-0.0062978636,-0.00047160542,9.8195486,-0.36761999,0.98999298,0.73995697,-0.072072998,-0.66694498,-0.049527999,-0.38571884,-1.4626796,0.21328277
4666434020032,0.5458288,0,,0.0048896272,-0.0062978636,-0.00047160542,9.8195486,-0.36761999,0.98999298,0.73995697,-0.072072998,-0.66694498,-0.049527999,-0.38571884,-1.4626796,0.21328277
4666436029760,0.54783853,0,,0.0048896272,-0.0062978636,-0.00047160542,9.8195486,-0.36761999,0.98999298,0.73995697,-0.072072998,-0.66694498,-0.049527999,-0.38571884,-1.4626796,0.21328277
4666438026752,0.54983552,0,,0.0022637967,0.0017582971,0.00054253559,9.8106384,-0.388715,0.98441398,0.73995399,-0.072066002,-0.66694802,-0.049520999,-0.38572113,-1.4626868,0.21330421
4666440180928,0.5519897,0,,0.0022637967,0.0017582971,0.00054253559,9.8106384,-0.388715,0.98441398,0.73995399,-0.072066002,-0.66694802,-0.049520999,-0.38572113,-1.4626868,0.21330421
4666442078496,0.55388726,0,,-0.00012674581,0.0005319938,0.0019806695,9.7212505,-0.391956,1.00262,0.73995697,-0.072065003,-0.66694599,-0.049520001,-0.38571025,-1.4626801,0.21329622
4666444042240,0.55585101,0,,-0.00012674581,0.0005319938,0.0019806695,9.7212505,-0.391956,1.00262,0.73995697,-0.072065003,-0.66694599,-0.049520001,-0.38571025,-1.4626801,0.21329622
4666446034464,0.55784323,0,,-0.0010298315,7.6846843e-05,0.0030854628,9.6327248,-0.349401,0.976735,0.73995799,-0.072072998,-0.66694403,-0.049518999,-0.38580849,-1.4626725,0.21338592
4666448030656,0.55983942,0,,-0.0010298315,7.6846843e-05,0.0030854628,9.6327248,-0.349401,0.976735,0.73995799,-0.072072998,-0.66694403,-0.049518999,-0.38580849,-1.4626725,0.21338592
4666450041632,0.5618504,0,,-0.0010298315,7.6846843e-05,0.0030854628,9.6327248,-0.349401,0.976735,0.73995799,-0.072072998,-0.66694403,-0.049518999,-0.38580849,-1.4626725,0.21338592
4666452040224,0.56384899,0,,-0.0015534652,0.00046596802,0.0011716221,9.6210737,-0.38984299,0.93954098,0.739959,-0.072075002,-0.666942,-0.049518,-0.38583731,-1.4626669,0.21341256
4666454020480,0.56582925,0,,-0.0015534652,0.00046596802,0.0011716221,9.6210737,-0.38984299,0.93954098,0.739959,-0.072075002,-0.666942,-0.049518,-0.38583731,-1.4626669,0.21341256
4666456015008,0.56782378,0,,-0.0015534652,0.00046596802,0.0011716221,9.6210737,-0.38984299,0.93954098,0.739959,-0.072075002,-0.666942,-0.049518,-0.38583731,-1.4626669,0.21341256
4666458016416,0.56982518,0,,-0.00024385741,-0.00031009263,0.0011086331,9.7080421,-0.34575298,0.96578503,0.73996097,-0.072080001,-0.66693902,-0.049520001,-0.38585679,-1.4626603,0.2134214
4666460202240,0.57201101,0,,-0.00024385741,-0.00031009263,0.0011086331,9.7080421,-0.34575298,0.96578503,0.73996097,-0.072080001,-0.66693902,-0.049520001,-0.38585679,-1.4626603,0.2134214
4666462010400,0.57381917,0,,-0.0007348534,-0.0044114769,-0.00047308895,9.8105698,-0.42860001,0.99397802,0.73995697,-0.072076999,-0.66694498,-0.049520001,-0.38585819,-1.4626745,0.21342779
4666464001568,0.57581034,0,,-0.0007348534,-0.0044114769,-0.00047308895,9.8105698,-0.42860001,0.99397802,0.73995697,-0.072076999,-0.66694498,-0.049520001,-0.38585819,-1.4626745,0.21342779
4666466006080,0.57781485,0,,-0.0015332543,-0.0016688314,-0.00099850284,9.8386402,-0.40764299,0.97082198,0.73995101,-0.072081,-0.66694999,-0.049527001,-0.38586052,-1.4626885,0.21341418
4666468032576,0.57984134,0,,-0.0015332543,-0.0016688314,-0.00099850284,9.8386402,-0.40764299,0.97082198,0.73995101,-0.072081,-0.66694999,-0.049527001,-0.38586052,-1.4626885,0.21341418
4666470043936,0.5818527,0,,-0.0015332543,-0.0016688314,-0.00099850284,9.8386402,-0.40764299,0.97082198,0.73995101,-0.072081,-0.66694999,-0.049527001,-0.38586052,-1.4626885,0.21341418
4666472031840,0.58384061,0,,-0.0056971559,-0.0044409205,-0.00054967398,9.8001299,-0.31959301,0.980488,0.73994499,-0.072088003,-0.66695499,-0.049534999,-0.38591098,-1.4627045,0.21344401
4666474025984,0.58583475,0,,-0.0056971559,-0.0044409205,-0.00054967398,9.8001299,-0.31959301,0.980488,0.73994499,-0.072088003,-0.66695499,-0.049534999,-0.38591098,-1.4627045,0.21344401
4666475989600,0.58779837,0,,-0.0056971559,-0.0044409205,-0.00054967398,9.8001299,-0.31959301,0.980488,0.73994499,-0.072088003,-0.66695499,-0.049534999,-0.38591098,-1.4627045,0.21344401
4666477992736,0.5898015,0,,-0.0056971559,-0.0044409205,-0.00054967398,9.8001299,-0.31959301,0.980488,0.73994499,-0.072088003,-0.66695499,-0.049534999,-0.38591098,-1.4627045,0.21344401
4666480194976,0.59200374,0,,-0.0056971559,-0.0044409205,-0.00054967398,9.8001299,-0.31959301,0.980488,0.73994499,-0.072088003,-0.66695499,-0.049534999,-0.38591098,-1.4627045,0.21344401
4666482122912,0.59393168,0,,-0.0032381095,-0.0031208755,0.0035655157,9.9289904,-0.44234401,1.009835,0.73993498,-0.072094999,-0.66696501,-0.049541999,-0.38600389,-1.4627348,0.21351638
4666484051296,0.59586006,0,,-0.0032381095,-0.0031208755,0.0035655157,9.9289904,-0.44234401,1.009835,0.73993498,-0.072094999,-0.66696501,-0.049541999,-0.38600389,-1.4627348,0.21351638
4666486034208,0.59784298,0,,0.0026337542,-0.0011022452,0.0031647358,9.8268013,-0.43705899,1.0106829,0.73993301,-0.072104998,-0.66696697,-0.049536999,-0.38621185,-1.462732,0.21371786
4666488016416,0.59982518,0,,0.0026337542,-0.0011022452,0.0031647358,9.8268013,-0.43705899,1.0106829,0.73993301,-0.072104998,-0.66696697,-0.049536999,-0.38621185,-1.462732,0.21371786
4666490016000,0.60182477,0,,0.0026337542,-0.0011022452,0.0031647358,9.8268013,-0.43705899,1.0106829,0.73993301,-0.072104998,-0.66696697,-0.049536999,-0.38621185,-1.462732,0.21371786
4666492066016,0.60387478,0,,0.0068584632,0.0009642595,0.0002271546,9.6883707,-0.38899201,0.97258002,0.73993498,-0.072102003,-0.66696602,-0.049527999,-0.38626582,-1.4627259,0.21378804
4666494018464,0.60582723,0,,0.0068584632,0.0009642595,0.0002271546,9.6883707,-0.38899201,0.97258002,0.73993498,-0.072102003,-0.66696602,-0.049527999,-0.38626582,-1.4627259,0.21378804
4666496011904,0.60782067,0,,0.0068584632,0.0009642595,0.0002271546,9.6883707,-0.38899201,0.97258002,0.73993498,-0.072102003,-0.66696602,-0.049527999,-0.38626582,-1.4627259,0.21378804
4666498014560,0.60982333,0,,0.009537893,0.00068556535,0.00040755184,9.5996103,-0.37255901,0.98005199,0.739941,-0.072085001,-0.66696203,-0.049515001,-0.38615333,-1.4627134,0.21371881
4666500192096,0.61200086,0,,0.009537893,0.00068556535,0.00040755184,9.5996103,-0.37255901,0.98005199,0.739941,-0.072085001,-0.66696203,-0.049515001,-0.38615333,-1.4627134,0.21371881
4666502013472,0.61382224,0,,0.0078181499,-0.00048281043,0.0022791034,9.6771345,-0.45710701,1.003405,0.73994398,-0.072071001,-0.66696203,-0.049497999,-0.38615183,-1.4627078,0.2137611
4666504007744,0.61581651,0,,0.0078181499,-0.00048281043,0.0022791034,9.6771345,-0.45710701,1.003405,0.73994398,-0.072071001,-0.66696203,-0.049497999,-0.38615183,-1.4627078,0.2137611
4666506006976,0.61781574,0,,0.0022161667,-0.0028295104,0.0010026742,9.7686653,-0.46817601,0.99994898,0.73994499,-0.072067998,-0.66696101,-0.049486998,-0.38624801,-1.4627022,0.21387782
4666508005472,0.61981424,0,,0.0022161667,-0.0028295104,0.0010026742,9.7686653,-0.46817601,0.99994898,0.73994499,-0.072067998,-0.66696101,-0.049486998,-0.38624801,-1.4627022,0.21387782
4666510005664,0.62181443,0,,0.0022161667,-0.0028295104,0.0010026742,9.7686653,-0.46817601,0.99994898,0.73994499,-0.072067998,-0.66696101,-0.049486998,-0.38624801,-1.4627022,0.21387782
4666512000416,0.62380918,0,,-0.0025752682,-0.0024048717,0.00011599458,9.7864876,-0.38802299,1.010414,0.73994201,-0.072074004,-0.66696399,-0.049484,-0.38637684,-1.4627055,0.21400106
4666514098752,0.62590752,0,,-0.0025752682,-0.0024048717,0.00011599458,9.7864876,-0.38802299,1.010414,0.73994201,-0.072074004,-0.66696399,-0.049484,-0.38637684,-1.4627055,0.21400106
4666516033280,0.62784205,0,,-0.00021752038,-0.0019664624,0.0011998441,9.8278446,-0.40580299,0.99976301,0.73993897,-0.072077997,-0.66696602,-0.049485002,-0.38643742,-1.4627121,0.21405395
4666518019488,0.62982826,0,,-0.00021752038,-0.0019664624,0.0011998441,9.8278446,-0.40580299,0.99976301,0.73993897,-0.072077997,-0.66696602,-0.049485002,-0.38643742,-1.4627121,0.21405395
4666520199136,0.6320079,0,,-0.00021752038,-0.0019664624,0.0011998441,9.8278446,-0.40580299,0.99976301,0.73993897,-0.072077997,-0.66696602,-0.049485002,-0.38643742,-1.4627121,0.21405395
4666522150688,0.63395946,0,,0.0014163522,0.0025408502,-0.0037583572,9.8798647,-0.39629599,1.010807,0.739941,-0.072075002,-0.66696399,-0.049490001,-0.38631848,-1.4627106,0.21393329
4666524015168,0.63582394,0,,0.0014163522,0.0025408502,-0.0037583572,9.8798647,-0.39629599,1.010807,0.739941,-0.072075002,-0.66696399,-0.049490001,-0.38631848,-1.4627106,0.21393329
4666526006720,0.63781549,0,,0.0055823659,0.0019487299,0.0001495049,9.8579111,-0.35706201,1.019436,0.73994797,-0.072061002,-0.66695797,-0.049488999,-0.38610876,-1.4626957,0.21374474
4666527997792,0.63980656,0,,0.0055823659,0.0019487299,0.0001495049,9.8579111,-0.35706201,1.019436,0.73994797,-0.072061002,-0.66695797,-0.049488999,-0.38610876,-1.4626957,0.21374474
4666529996768,0.64180554,0,,0.0055823659,0.0019487299,0.0001495049,9.8579111,-0.35706201,1.019436,0.73994797,-0.072061002,-0.66695797,-0.049488999,-0.38610876,-1.4626957,0.21374474
4666532009216,0.64381798,0,,0.0016056157,-0.0020773433,0.0024776867,9.7616053,-0.43209299,0.95815897,0.73995,-0.072053,-0.66695702,-0.049483001,-0.38604963,-1.462695,0.21370579
4666534001184,0.64580995,0,,0.0016056157,-0.0020773433,0.0024776867,9.7616053,-0.43209299,0.95815897,0.73995,-0.072053,-0.66695702,-0.049483001,-0.38604963,-1.462695,0.21370579
4666535996640,0.64780541,0,,-0.00046221553,-0.002721876,0.0015773587,9.7712955,-0.38365,1.0014451,0.73994601,-0.072062001,-0.66696101,-0.049479999,-0.38623755,-1.4627005,0.21388581
4666537993984,0.64980275,0,,-0.00046221553,-0.002721876,0.0015773587,9.7712955,-0.38365,1.0014451,0.73994601,-0.072062001,-0.66696101,-0.049479999,-0.38623755,-1.4627005,0.21388581
4666540057632,0.6518664,0,,-0.00046221553,-0.002721876,0.0015773587,9.7712955,-0.38365,1.0014451,0.73994601,-0.072062001,-0.66696101,-0.049479999,-0.38623755,-1.4627005,0.21388581
4666542021504,0.65383027,0,,0.0023763355,-0.0019398811,0.00046684066,9.7441015,-0.42105201,0.99591297,0.73994499,-0.072058,-0.66696298,-0.049477998,-0.3862263,-1.4627055,0.21388261
4666544017760,0.65582653,0,,0.0023763355,-0.0019398811,0.00046684066,9.7441015,-0.42105201,0.99591297,0.73994499,-0.072058,-0.66696298,-0.049477998,-0.3862263,-1.4627055,0.21388261
4666546047712,0.65785648,0,,0.0023763355,-0.0019398811,0.00046684066,9.7441015,-0.42105201,0.99591297,0.73994499,-0.072058,-0.66696298,-0.049477998,-0.3862263,-1.4627055,0.21388261
4666548106432,0.6599152,0,,-0.0025371676,-0.00079545124,-0.0020924229,9.7292442,-0.414529,0.96529502,0.73994398,-0.072057001,-0.66696399,-0.049481001,-0.38618309,-1.462711,0.21383596
4666550041632,0.6618504,0,,-0.0025371676,-0.00079545124,-0.0020924229,9.7292442,-0.414529,0.96529502,0.73994398,-0.072057001,-0.66696399,-0.049481001,-0.38618309,-1.462711,0.21383596
4666552024192,0.66383296,0,,-0.0024853314,-0.0011956727,-0.0051677804,9.6331797,-0.323717,0.97433901,0.73993999,-0.072062001,-0.66696697,-0.049495999,-0.38609604,-1.4627222,0.21372237
4666554028192,0.66583696,0,,-0.0024853314,-0.0011956727,-0.0051677804,9.6331797,-0.323717,0.97433901,0.73993999,-0.072062001,-0.66696697,-0.049495999,-0.38609604,-1.4627222,0.21372237
4666556016256,0.66782502,0,,0.0011899655,-0.0017673728,0.00071509627,9.7479048,-0.35011399,0.98266697,0.73993802,-0.072053,-0.66697001,-0.0495,-0.38594774,-1.4627354,0.21358038
4666558021824,0.66983059,0,,0.0011899655,-0.0017673728,0.00071509627,9.7479048,-0.35011399,0.98266697,0.73993802,-0.072053,-0.66697001,-0.0495,-0.38594774,-1.4627354,0.21358038
4666560172352,0.67198112,0,,0.0011899655,-0.0017673728,0.00071509627,9.7479048,-0.35011399,0.98266697,0.73993802,-0.072053,-0.66697001,-0.0495,-0.38594774,-1.4627354,0.21358038
4666562013920,0.67382269,0,,0.0014180625,-0.0025950427,0.00058297487,9.7826872,-0.35697001,0.98239303,0.73993498,-0.072047003,-0.66697299,-0.049497999,-0.3859204,-1.4627447,0.21356295
4666564135168,0.67594394,0,,0.0014180625,-0.0025950427,0.00058297487,9.7826872,-0.35697001,0.98239303,0.73993498,-0.072047003,-0.66697299,-0.049497999,-0.3859204,-1.4627447,0.21356295
4666566028096,0.67783686,0,,0.0014180625,-0.0025950427,0.00058297487,9.7826872,-0.35697001,0.98239303,0.73993498,-0.072047003,-0.66697299,-0.049497999,-0.3859204,-1.4627447,0.21356295
4666568014464,0.67982323,0,,0.0075072545,-0.0019914033,0.0050592206,9.753438,-0.288454,0.99801302,0.739932,-0.072042003,-0.666978,-0.049486,-0.38602194,-1.462752,0.21369081
4666570009760,0.68181853,0,,0.0075072545,-0.0019914033,0.0050592206,9.753438,-0.288454,0.99801302,0.739932,-0.072042003,-0.666978,-0.049486,-0.38602194,-1.462752,0.21369081
4666572010240,0.68381901,0,,0.0013298885,0.0018490368,0.0031633568,9.8161278,-0.42319101,0.94495797,0.73993599,-0.07203,-0.66697598,-0.049472999,-0.38599331,-1.4627432,0.21369782
4666574019712,0.68582848,0,,0.0013298885,0.0018490368,0.0031633568,9.8161278,-0.42319101,0.94495797,0.73993599,-0.07203,-0.66697598,-0.049472999,-0.38599331,-1.4627432,0.21369782
4666576008928,0.6878177,0,,0.0013298885,0.0018490368,0.0031633568,9.8161278,-0.42319101,0.94495797,0.73993599,-0.07203,-0.66697598,-0.049472999,-0.38599331,-1.4627432,0.21369782
4666578005664,0.68981443,0,,-0.0021999526,-0.0049464379,0.0041422597,9.9605684,-0.48901001,0.98798698,0.73993301,-0.072043002,-0.66697901,-0.04947,-0.38622384,-1.4627454,0.21391296
4666580200512,0.69200928,0,,-0.0021999526,-0.0049464379,0.0041422597,9.9605684,-0.48901001,0.98798698,0.73993301,-0.072043002,-0.66697901,-0.04947,-0.38622384,-1.4627454,0.21391296
4666582007584,0.69381635,0,,0.0004684289,-0.0057900774,-0.0022286632,9.8475542,-0.41964701,1.023348,0.73992199,-0.072053999,-0.66698897,-0.049467999,-0.38647328,-1.4627692,0.21414901
4666583999072,0.69580784,0,,0.0004684289,-0.0057900774,-0.0022286632,9.8475542,-0.41964701,1.023348,0.73992199,-0.072053999,-0.66698897,-0.049467999,-0.38647328,-1.4627692,0.21414901
4666585997056,0.69780582,0,,0.0004684289,-0.0057900774,-0.0022286632,9.8475542,-0.41964701,1.023348,0.73992199,-0.072053999,-0.66698897,-0.049467999,-0.38647328,-1.4627692,0.21414901
4666587990784,0.69979955,0,,0.00076532689,-0.0018904185,-0.00083712971,9.7562962,-0.446637,0.956613,0.73991901,-0.072050996,-0.66699302,-0.049470998,-0.38642487,-1.4627818,0.21410216
4666589989312,0.70179808,0,,0.00076532689,-0.0018904185,-0.00083712971,9.7562962,-0.446637,0.956613,0.73991901,-0.072050996,-0.66699302,-0.049470998,-0.38642487,-1.4627818,0.21410216
4666592060064,0.70386883,0,,0.0079008962,0.0010250843,-0.00020697859,9.7462168,-0.431355,0.97709,0.73991799,-0.072047003,-0.66699499,-0.049467001,-0.38642378,-1.4627845,0.21411146
4666594012800,0.70582157,0,,0.0079008962,0.0010250843,-0.00020697859,9.7462168,-0.431355,0.97709,0.73991799,-0.072047003,-0.66699499,-0.049467001,-0.38642378,-1.4627845,0.21411146
4666596004608,0.70781338,0,,0.0061667368,-0.00053227306,0.00079635883,9.731698,-0.33774,1.039055,0.73992097,-0.072039001,-0.66699302,-0.049458001,-0.38641126,-1.4627785,0.21412306
4666598019584,0.70982835,0,,0.0061667368,-0.00053227306,0.00079635883,9.731698,-0.33774,1.039055,0.73992097,-0.072039001,-0.66699302,-0.049458001,-0.38641126,-1.4627785,0.21412306
4666600064768,0.71187354,0,,0.0061667368,-0.00053227306,0.00079635883,9.731698,-0.33774,1.039055,0.73992097,-0.072039001,-0.66699302,-0.049458001,-0.38641126,-1.4627785,0.21412306
4666602019200,0.71382797,0,,0.0017377196,-0.00061676444,0.0029214367,9.6652479,-0.39343801,0.99895298,0.73992503,-0.072029002,-0.666991,-0.049449001,-0.38636895,-1.4627695,0.21410705
4666604081152,0.71588992,0,,0.0017377196,-0.00061676444,0.0029214367,9.6652479,-0.39343801,0.99895298,0.73992503,-0.072029002,-0.666991,-0.049449001,-0.38636895,-1.4627695,0.21410705
4666606023232,0.717832,0,,0.0017377196,-0.00061676444,0.0029214367,9.6652479,-0.39343801,0.99895298,0.73992503,-0.072029002,-0.666991,-0.049449001,-0.38636895,-1.4627695,0.21410705
4666608012448,0.71982122,0,,0.0056227003,0.0038692553,0.0021017604,9.6442232,-0.402953,0.97845799,0.73992902,-0.072025999,-0.666987,-0.049438998,-0.3864033,-1.4627576,0.21416055
4666610034624,0.72184339,0,,0.0056227003,0.0038692553,0.0021017604,9.6442232,-0.402953,0.97845799,0.73992902,-0.072025999,-0.666987,-0.049438998,-0.3864033,-1.4627576,0.21416055
4666612007712,0.72381648,0,,0.0059786604,0.0024939185,0.0024256238,9.7079849,-0.37119499,0.99596,0.73993701,-0.072017998,-0.66697997,-0.049428001,-0.38638316,-1.4627336,0.21416804
4666614061792,0.72587056,0,,0.0059786604,0.0024939185,0.0024256238,9.7079849,-0.37119499,0.99596,0.73993701,-0.072017998,-0.66697997,-0.049428001,-0.38638316,-1.4627336,0.21416804
4666616019712,0.72782848,0,,0.0045019719,-0.00017739527,0.0035848538,9.8229179,-0.44973201,1.007115,0.73994201,-0.072012,-0.66697598,-0.049412001,-0.38645117,-1.4627178,0.21426601
4666618027712,0.72983648,0,,0.0045019719,-0.00017739527,0.0035848538,9.8229179,-0.44973201,1.007115,0.73994201,-0.072012,-0.66697598,-0.049412001,-0.38645117,-1.4627178,0.21426601
4666620170112,0.73197888,0,,0.0045019719,-0.00017739527,0.0035848538,9.8229179,-0.44973201,1.007115,0.73994201,-0.072012,-0.66697598,-0.049412001,-0.38645117,-1.4627178,0.21426601
4666622009312,0.73381808,0,,0.002706709,-0.00092404713,0.000510439,9.8446531,-0.47334298,0.99071598,0.73994303,-0.072012,-0.66697502,-0.049403001,-0.3865551,-1.4627121,0.21438394
4666623998784,0.73580755,0,,0.002706709,-0.00092404713,0.000510439,9.8446531,-0.47334298,0.99071598,0.73994303,-0.072012,-0.66697502,-0.049403001,-0.3865551,-1.4627121,0.21438394
4666626007008,0.73781578,0,,0.002706709,-0.00092404713,0.000510439,9.8446531,-0.47334298,0.99071598,0.73994303,-0.072012,-0.66697502,-0.049403001,-0.3865551,-1.4627121,0.21438394
4666627997024,0.73980579,0,,-0.00021582741,-0.0032325244,-0.00085482738,9.7784252,-0.38423499,0.99270797,0.73993999,-0.072015002,-0.66697901,-0.049401,-0.38663696,-1.4627198,0.21446356
4666630000288,0.74180906,0,,-0.00021582741,-0.0032325244,-0.00085482738,9.7784252,-0.38423499,0.99270797,0.73993999,-0.072015002,-0.66697901,-0.049401,-0.38663696,-1.4627198,0.21446356
4666632003488,0.74381226,0,,0.0019725536,-0.0032956879,4.3109631e-06,9.7954102,-0.414882,0.96836501,0.73993599,-0.072010003,-0.66698402,-0.049403001,-0.38659805,-1.4627359,0.21442891
4666633997408,0.74580618,0,,0.0019725536,-0.0032956879,4.3109631e-06,9.7954102,-0.414882,0.96836501,0.73993599,-0.072010003,-0.66698402,-0.049403001,-0.38659805,-1.4627359,0.21442891
4666635990176,0.74779894,0,,-0.0008048935,-0.0015814603,-0.00040051817,9.8747702,-0.439924,1.0063879,0.73993301,-0.072010003,-0.666987,-0.049403001,-0.38662305,-1.4627432,0.21445439
4666638019200,0.74982797,0,,-0.0008048935,-0.0015814603,-0.00040051817,9.8747702,-0.439924,1.0063879,0.73993301,-0.072010003,-0.666987,-0.049403001,-0.38662305,-1.4627432,0.21445439
4666640191104,0.75199987,0,,-0.0008048935,-0.0015814603,-0.00040051817,9.8747702,-0.439924,1.0063879,0.73993301,-0.072010003,-0.666987,-0.049403001,-0.38662305,-1.4627432,0.21445439
4666641996800,0.75380557,0,,-9.5783667e-05,0.00027057839,-0.0027825435,9.801712,-0.39469901,0.99330401,0.739932,-0.072012,-0.66698802,-0.049408998,-0.38657954,-1.4627482,0.21440028
4666644071264,0.75588003,0,,-9.5783667e-05,0.00027057839,-0.0027825435,9.801712,-0.39469901,0.99330401,0.739932,-0.072012,-0.66698802,-0.049408998,-0.38657954,-1.4627482,0.21440028
4666646037792,0.75784656,0,,-9.5783667e-05,0.00027057839,-0.0027825435,9.801712,-0.39469901,0.99330401,0.739932,-0.072012,-0.66698802,-0.049408998,-0.38657954,-1.4627482,0.21440028
4666648024192,0.75983296,0,,0.0014032273,0.0011868588,-0.0014187607,9.7699442,-0.342767,0.96284801,0.73993403,-0.072006002,-0.66698599,-0.04941,-0.38646509,-1.4627454,0.21429186
4666649992320,0.76180109,0,,0.0014032273,0.0011868588,-0.0014187607,9.7699442,-0.342767,0.96284801,0.73993403,-0.072006002,-0.66698599,-0.04941,-0.38646509,-1.4627454,0.21429186
4666651982720,0.76379149,0,,0.0010189931,0.0067039494,-0.0019454836,9.7434826,-0.34202901,0.97294098,0.73993897,-0.071998,-0.66698098,-0.049415,-0.38625799,-1.4627348,0.21408921
4666653980032,0.7657888,0,,0.0010189931,0.0067039494,-0.0019454836,9.7434826,-0.34202901,0.97294098,0.73993897,-0.071998,-0.66698098,-0.049415,-0.38625799,-1.4627348,0.21408921
4666656012192,0.76782096,0,,0.0010189931,0.0067039494,-0.0019454836,9.7434826,-0.34202901,0.97294098,0.73993897,-0.071998,-0.66698098,-0.049415,-0.38625799,-1.4627348,0.21408921
4666658016448,0.76982522,0,,0.0044176901,0.0059620619,-0.0010791546,9.7043924,-0.34939,0.98884302,0.73995298,-0.071984999,-0.66696697,-0.049417999,-0.38595969,-1.4627062,0.2138049
4666660174848,0.77198362,0,,0.0044176901,0.0059620619,-0.0010791546,9.7043924,-0.34939,0.98884302,0.73995298,-0.071984999,-0.66696697,-0.049417999,-0.38595969,-1.4627062,0.2138049
4666662024192,0.77383296,0,,0.0035509074,0.00049761084,0.00074508108,9.6771564,-0.34532401,0.972785,0.739959,-0.071973003,-0.66696101,-0.049412999,-0.38580795,-1.4626929,0.21367653
4666664010176,0.77581894,0,,0.0035509074,0.00049761084,0.00074508108,9.6771564,-0.34532401,0.972785,0.739959,-0.071973003,-0.66696101,-0.049412999,-0.38580795,-1.4626929,0.21367653
4666666023552,0.77783232,0,,0.0074491175,0.0023506443,0.0043351534,9.7030678,-0.36616999,0.97343099,0.73996401,-0.071961999,-0.66695797,-0.049401,-0.38576684,-1.4626824,0.21366863
4666668013440,0.77982221,0,,0.0074491175,0.0023506443,0.0043351534,9.7030678,-0.36616999,0.97343099,0.73996401,-0.071961999,-0.66695797,-0.049401,-0.38576684,-1.4626824,0.21366863
4666670009504,0.78181827,0,,0.0074491175,0.0023506443,0.0043351534,9.7030678,-0.36616999,0.97343099,0.73996401,-0.071961999,-0.66695797,-0.049401,-0.38576684,-1.4626824,0.21366863
4666672007488,0.78381626,0,,0.0023027699,0.0024479987,0.0057318181,9.7620649,-0.406445,0.97090101,0.73997098,-0.071960002,-0.666951,-0.049385,-0.38587916,-1.4626559,0.21380551
4666674005952,0.78581472,0,,0.0023027699,0.0024479987,0.0057318181,9.7620649,-0.406445,0.97090101,0.73997098,-0.071960002,-0.666951,-0.049385,-0.38587916,-1.4626559,0.21380551
4666676004384,0.78781315,0,,0.0023027699,0.0024479987,0.0057318181,9.7620649,-0.406445,0.97090101,0.73997098,-0.071960002,-0.666951,-0.049385,-0.38587916,-1.4626559,0.21380551
4666678018848,0.78982762,0,,-0.0052377331,0.0010012256,-0.0009524611,9.860218,-0.417611,1.0148799,0.73997301,-0.071970999,-0.66694802,-0.049389001,-0.38595319,-1.4626454,0.21385873
4666680177920,0.79198669,0,,-0.0052377331,0.0010012256,-0.0009524611,9.860218,-0.417611,1.0148799,0.73997301,-0.071970999,-0.66694802,-0.049389001,-0.38595319,-1.4626454,0.21385873
4666682064672,0.79387344,0,,-0.00023136085,0.0020539034,0.00056164695,9.8088684,-0.436398,0.98101199,0.73997498,-0.071976997,-0.66694403,-0.049394999,-0.38593702,-1.4626366,0.21382659
4666684089792,0.79589856,0,,-0.00023136085,0.0020539034,0.00056164695,9.8088684,-0.436398,0.98101199,0.73997498,-0.071976997,-0.66694403,-0.049394999,-0.38593702,-1.4626366,0.21382659
4666686004544,0.79781331,0,,-0.00023136085,0.0020539034,0.00056164695,9.8088684,-0.436398,0.98101199,0.73997498,-0.071976997,-0.66694403,-0.049394999,-0.38593702,-1.4626366,0.21382659
4666688007136,0.7998159,0,,0.0016412029,-0.00081454518,-0.001595196,9.8312654,-0.40469101,0.978728,0.73997599,-0.071976997,-0.66694301,-0.049396999,-0.38591032,-1.4626343,0.21379742
4666690003744,0.80181251,0,,0.0016412029,-0.00081454518,-0.001595196,9.8312654,-0.40469101,0.978728,0.73997599,-0.071976997,-0.66694301,-0.049396999,-0.38591032,-1.4626343,0.21379742
4666692070048,0.80387882,0,,0.0025992317,-0.00071347314,-0.00052916637,9.8029232,-0.40689501,1.008003,0.73997599,-0.071971998,-0.66694403,-0.049396999,-0.38584966,-1.4626415,0.21374286
4666694016352,0.80582512,0,,0.0025992317,-0.00071347314,-0.00052916637,9.8029232,-0.40689501,1.008003,0.73997599,-0.071971998,-0.66694403,-0.049396999,-0.38584966,-1.4626415,0.21374286
4666695999712,0.80780848,0,,-0.00042416738,-0.0036287489,0.0019685394,9.7809305,-0.415474,1.017274,0.73997498,-0.071970999,-0.66694498,-0.049394,-0.38587919,-1.4626436,0.21377707
4666697999616,0.80980838,0,,-0.00042416738,-0.0036287489,0.0019685394,9.7809305,-0.415474,1.017274,0.73997498,-0.071970999,-0.66694498,-0.049394,-0.38587919,-1.4626436,0.21377707
4666700317088,0.81212586,0,,-0.00042416738,-0.0036287489,0.0019685394,9.7809305,-0.415474,1.017274,0.73997498,-0.071970999,-0.66694498,-0.049394,-0.38587919,-1.4626436,0.21377707
4666701991200,0.81379997,0,,-0.0024977231,0.002011649,-0.0010097079,9.7299032,-0.40072501,1.003722,0.73997498,-0.071974002,-0.66694403,-0.049396001,-0.38589394,-1.4626399,0.21378562
4666703990272,0.81579904,0,,-0.0024977231,0.002011649,-0.0010097079,9.7299032,-0.40072501,1.003722,0.73997498,-0.071974002,-0.66694403,-0.049396001,-0.38589394,-1.4626399,0.21378562
4666705994944,0.81780371,0,,0.0021576808,0.00099560561,0.0012394456,9.6730728,-0.385591,0.99742699,0.73997802,-0.071975999,-0.66694099,-0.049399,-0.38585679,-1.4626315,0.21374101
4666707990176,0.81979894,0,,0.0021576808,0.00099560561,0.0012394456,9.6730728,-0.385591,0.99742699,0.73997802,-0.071975999,-0.66694099,-0.049399,-0.38585679,-1.4626315,0.21374101
4666710004320,0.82181309,0,,0.0021576808,0.00099560561,0.0012394456,9.6730728,-0.385591,0.99742699,0.73997802,-0.071975999,-0.66694099,-0.049399,-0.38585679,-1.4626315,0.21374101
4666712016512,0.82382528,0,,0.0086045258,0.0021098413,0.0021810682,9.7109575,-0.446006,0.98218697,0.73998499,-0.071964003,-0.66693503,-0.049387001,-0.38578352,-1.462615,0.21370217
4666714084768,0.82589354,0,,0.0086045258,0.0021098413,0.0021810682,9.7109575,-0.446006,0.98218697,0.73998499,-0.071964003,-0.66693503,-0.049387001,-0.38578352,-1.462615,0.21370217
4666716020864,0.82782963,0,,0.0086045258,0.0021098413,0.0021810682,9.7109575,-0.446006,0.98218697,0.73998499,-0.071964003,-0.66693503,-0.049387001,-0.38578352,-1.462615,0.21370217
4666718018560,0.82982733,0,,-0.00083580326,-0.0033867066,6.8329636e-05,9.7722635,-0.436544,1.003476,0.73998398,-0.071962997,-0.66693699,-0.049378999,-0.38588269,-1.4626155,0.21381374
4666720173664,0.83198243,0,,-0.00083580326,-0.0033867066,6.8329636e-05,9.7722635,-0.436544,1.003476,0.73998398,-0.071962997,-0.66693699,-0.049378999,-0.38588269,-1.4626155,0.21381374
4666722012672,0.83382144,0,,-8.0773835e-05,-0.0024748246,0.0022579151,9.7609015,-0.393803,0.99487001,0.73997998,-0.071969002,-0.66694099,-0.049380001,-0.38599091,-1.4626255,0.21391259
4666724060224,0.83586899,0,,-8.0773835e-05,-0.0024748246,0.0022579151,9.7609015,-0.393803,0.99487001,0.73997998,-0.071969002,-0.66694099,-0.049380001,-0.38599091,-1.4626255,0.21391259
4666726031904,0.83784067,0,,-0.00060425045,0.0017274221,-0.00082561056,9.7868156,-0.40011799,0.97397101,0.73998201,-0.071971998,-0.66693902,-0.049378999,-0.38602963,-1.4626171,0.21394839
4666728020096,0.83982886,0,,-0.00060425045,0.0017274221,-0.00082561056,9.7868156,-0.40011799,0.97397101,0.73998201,-0.071971998,-0.66693902,-0.049378999,-0.38602963,-1.4626171,0.21394839
4666730006400,0.84181517,0,,-0.00060425045,0.0017274221,-0.00082561056,9.7868156,-0.40011799,0.97397101,0.73998201,-0.071971998,-0.66693902,-0.049378999,-0.38602963,-1.4626171,0.21394839
4666732001024,0.84380979,0,,0.00072274083,0.0024021315,-0.0034040203,9.8341446,-0.39509299,0.99030298,0.739986,-0.071969002,-0.66693401,-0.049385998,-0.38585146,-1.4626094,0.21376473
4666734005472,0.84581424,0,,0.00072274083,0.0024021315,-0.0034040203,9.8341446,-0.39509299,0.99030298,0.739986,-0.071969002,-0.66693401,-0.049385998,-0.38585146,-1.4626094,0.21376473
4666736000128,0.8478089,0,,0.00095933766,0.00033318336,-0.0012726766,9.8406534,-0.39497,0.99027503,0.73998898,-0.071962997,-0.66693097,-0.049389999,-0.38571754,-1.4626067,0.21363392
4666738012224,0.84982099,0,,0.00095933766,0.00033318336,-0.0012726766,9.8406534,-0.39497,0.99027503,0.73998898,-0.071962997,-0.66693097,-0.049389999,-0.38571754,-1.4626067,0.21363392
4666740163648,0.85197242,0,,0.00095933766,0.00033318336,-0.0012726766,9.8406534,-0.39497,0.99027503,0.73998898,-0.071962997,-0.66693097,-0.049389999,-0.38571754,-1.4626067,0.21363392
4666742010208,0.85381898,0,,0.00065907125,0.00012088151,0.0015476707,9.8268375,-0.39426401,0.97701597,0.73999,-0.071961999,-0.66693002,-0.049389001,-0.3856994,-1.4626033,0.21361731
4666744004576,0.85581334,0,,0.00065907125,0.00012088151,0.0015476707,9.8268375,-0.39426401,0.97701597,0.73999,-0.071961999,-0.66693002,-0.049389001,-0.3856994,-1.4626033,0.21361731
4666746003072,0.85781184,0,,0.00065907125,0.00012088151,0.0015476707,9.8268375,-0.39426401,0.97701597,0.73999,-0.071961999,-0.66693002,-0.049389001,-0.3856994,-1.4626033,0.21361731
4666748060064,0.85986883,0,,-0.002282559,-0.0046939234,-0.00025972244,9.7694159,-0.36864799,0.97395599,0.739986,-0.071965002,-0.66693401,-0.049389001,-0.38576764,-1.4626111,0.21368136
4666750014240,0.86182301,0,,-0.002282559,-0.0046939234,-0.00025972244,9.7694159,-0.36864799,0.97395599,0.739986,-0.071965002,-0.66693401,-0.049389001,-0.38576764,-1.4626111,0.21368136
4666752009056,0.86381782,0,,0.00067619292,-0.0026553089,-0.00031330406,9.7176104,-0.35507599,0.98203397,0.73997897,-0.071964003,-0.66694099,-0.049394999,-0.385745,-1.4626343,0.21365152
4666753998400,0.86580717,0,,0.00067619292,-0.0026553089,-0.00031330406,9.7176104,-0.35507599,0.98203397,0.73997897,-0.071964003,-0.66694099,-0.049394999,-0.385745,-1.4626343,0.21365152
4666755993152,0.86780192,0,,0.00067619292,-0.0026553089,-0.00031330406,9.7176104,-0.35507599,0.98203397,0.73997897,-0.071964003,-0.66694099,-0.049394999,-0.385745,-1.4626343,0.21365152
4666758015104,0.86982387,0,,0.00040880846,0.0016901943,0.00020415116,9.659049,-0.35258901,0.97335297,0.73997998,-0.071957998,-0.666942,-0.049396001,-0.3856476,-1.4626371,0.21356148
4666760198336,0.8720071,0,,0.00040880846,0.0016901943,0.00020415116,9.659049,-0.35258901,0.97335297,0.73997998,-0.071957998,-0.666942,-0.049396001,-0.3856476,-1.4626371,0.21356148
4666761988096,0.87379686,0,,-0.0018724067,-0.00045868997,0.00048989648,9.6732941,-0.35589099,0.95966703,0.73998201,-0.071956001,-0.66693902,-0.049399998,-0.38556005,-1.4626331,0.21347085
4666764029504,0.87583827,0,,-0.0018724067,-0.00045868997,0.00048989648,9.6732941,-0.35589099,0.95966703,0.73998201,-0.071956001,-0.66693902,-0.049399998,-0.38556005,-1.4626331,0.21347085
4666765997472,0.87780624,0,,-0.0018724067,-0.00045868997,0.00048989648,9.6732941,-0.35589099,0.95966703,0.73998201,-0.071956001,-0.66693902,-0.049399998,-0.38556005,-1.4626331,0.21347085
4666768017536,0.8798263,0,,0.0051011436,-0.0012568813,0.0023775051,9.7049932,-0.381046,0.97725999,0.739981,-0.071955003,-0.66694099,-0.049394999,-0.38561411,-1.4626355,0.21353377
4666770025888,0.88183466,0,,0.0051011436,-0.0012568813,0.0023775051,9.7049932,-0.381046,0.97725999,0.739981,-0.071955003,-0.66694099,-0.049394999,-0.38561411,-1.4626355,0.21353377
4666772014240,0.88382301,0,,0.00032813935,-0.0016110437,0.0014681011,9.7917843,-0.400877,0.98174399,0.739981,-0.071952,-0.66694099,-0.049389001,-0.38565672,-1.4626348,0.21358966
4666774037408,0.88584618,0,,0.00032813935,-0.0016110437,0.0014681011,9.7917843,-0.400877,0.98174399,0.739981,-0.071952,-0.66694099,-0.049389001,-0.38565672,-1.4626348,0.21358966
4666776014144,0.88782291,0,,-0.0001643402,-0.0026963765,0.001087375,9.8334665,-0.393666,0.98654097,0.739977,-0.071956001,-0.66694498,-0.049387999,-0.3857482,-1.462642,0.21367665
4666778020992,0.88982976,0,,-0.0001643402,-0.0026963765,0.001087375,9.8334665,-0.393666,0.98654097,0.739977,-0.071956001,-0.66694498,-0.049387999,-0.3857482,-1.462642,0.21367665
4666780073440,0.89188221,0,,-0.0001643402,-0.0026963765,0.001087375,9.8334665,-0.393666,0.98654097,0.739977,-0.071956001,-0.66694498,-0.049387999,-0.3857482,-1.462642,0.21367665
4666782011360,0.89382013,0,,-0.0001643402,-0.0026963765,0.001087375,9.8334665,-0.393666,0.98654097,0.739977,-0.071956001,-0.66694498,-0.049387999,-0.3857482,-1.462642,0.21367665
4666784005440,0.89581421,0,,-0.0001643402,-0.0026963765,0.001087375,9.8334665,-0.393666,0.98654097,0.739977,-0.071956001,-0.66694498,-0.049387999,-0.3857482,-1.462642,0.21367665
4666786006304,0.89781507,0,,0.0018841352,-0.0032901725,0.0034877788,9.8119879,-0.41224399,1.002851,0.73996997,-0.071961001,-0.66695303,-0.049375001,-0.38601891,-1.4626569,0.21395898
4666787997504,0.89980627,0,,0.0018841352,-0.0032901725,0.0034877788,9.8119879,-0.41224399,1.002851,0.73996997,-0.071961001,-0.66695303,-0.049375001,-0.38601891,-1.4626569,0.21395898
4666790031776,0.90184054,0,,0.0018841352,-0.0032901725,0.0034877788,9.8119879,-0.41224399,1.002851,0.73996997,-0.071961001,-0.66695303,-0.049375001,-0.38601891,-1.4626569,0.21395898
4666792064224,0.90387299,0,,-0.0023997578,0.00026174703,0.00036140533,9.8183498,-0.42605001,1.0024019,0.73996902,-0.071966,-0.66695398,-0.049373001,-0.38610859,-1.4626552,0.21404475
4666794000576,0.90580934,0,,-0.0023997578,0.00026174703,0.00036140533,9.8183498,-0.42605001,1.0024019,0.73996902,-0.071966,-0.66695398,-0.049373001,-0.38610859,-1.4626552,0.21404475
4666796004672,0.90781344,0,,-0.0018257889,-0.00092788687,0.00081075778,9.792716,-0.429557,0.99264801,0.73996997,-0.071973003,-0.666951,-0.049378999,-0.38613016,-1.4626491,0.21404728
4666797996160,0.90980493,0,,-0.0018257889,-0.00092788687,0.00081075778,9.792716,-0.429557,0.99264801,0.73996997,-0.071973003,-0.666951,-0.049378999,-0.38613016,-1.4626491,0.21404728
4666800150624,0.91195939,0,,-0.0018257889,-0.00092788687,0.00081075778,9.792716,-0.429557,0.99264801,0.73996997,-0.071973003,-0.666951,-0.049378999,-0.38613016,-1.4626491,0.21404728
4666801989664,0.91379843,0,,-0.00053070227,-0.0018104126,-0.0011109893,9.7605886,-0.42156899,0.99537897,0.739968,-0.071978003,-0.66695303,-0.049383,-0.38616255,-1.4626548,0.21406787
4666804005952,0.91581472,0,,-0.00053070227,-0.0018104126,-0.0011109893,9.7605886,-0.42156899,0.99537897,0.739968,-0.071978003,-0.66695303,-0.049383,-0.38616255,-1.4626548,0.21406787
4666806043136,0.9178519,0,,0.0039905732,0.00036671114,-0.00213089,9.7189951,-0.407902,1.0064811,0.73996598,-0.071973003,-0.66695601,-0.049383,-0.38611452,-1.462664,0.21402567
4666808044608,0.91985338,0,,0.0039905732,0.00036671114,-0.00213089,9.7189951,-0.407902,1.0064811,0.73996598,-0.071973003,-0.66695601,-0.049383,-0.38611452,-1.462664,0.21402567
4666809996096,0.92180486,0,,0.0039905732,0.00036671114,-0.00213089,9.7189951,-0.407902,1.0064811,0.73996598,-0.071973003,-0.66695601,-0.049383,-0.38611452,-1.462664,0.21402567
4666811984736,0.9237935,0,,0.00099701931,-0.0057275071,-0.00079785979,9.7095871,-0.40226299,0.99329197,0.73996401,-0.071967997,-0.66695899,-0.049382001,-0.38606951,-1.4626735,0.21398997
4666814059712,0.92586848,0,,0.00099701931,-0.0057275071,-0.00079785979,9.7095871,-0.40226299,0.99329197,0.73996401,-0.071967997,-0.66695899,-0.049382001,-0.38606951,-1.4626735,0.21398997
4666815991328,0.9278001,0,,0.001492658,-0.0018857235,-0.00076506506,9.6779461,-0.36558899,0.98761702,0.73995697,-0.071966998,-0.66696697,-0.049382001,-0.38612151,-1.4626929,0.21404313
4666817983232,0.929792,0,,0.001492658,-0.0018857235,-0.00076506506,9.6779461,-0.36558899,0.98761702,0.73995697,-0.071966998,-0.66696697,-0.049382001,-0.38612151,-1.4626929,0.21404313
4666820172384,0.93198115,0,,0.001492658,-0.0018857235,-0.00076506506,9.6779461,-0.36558899,0.98761702,0.73995697,-0.071966998,-0.66696697,-0.049382001,-0.38612151,-1.4626929,0.21404313
4666821985984,0.93379475,0,,-0.00049193849,-0.0011696324,-0.00023225096,9.7465982,-0.364768,0.99563402,0.73995602,-0.071961999,-0.66696799,-0.049384002,-0.38604378,-1.4626985,0.21396881
4666823978688,0.93578746,0,,-0.00049193849,-0.0011696324,-0.00023225096,9.7465982,-0.364768,0.99563402,0.73995602,-0.071961999,-0.66696799,-0.049384002,-0.38604378,-1.4626985,0.21396881
4666825985472,0.93779424,0,,-0.0025760536,-0.0024917367,0.00062973227,9.7729931,-0.420495,0.97078097,0.73995298,-0.071961999,-0.66697103,-0.049387001,-0.38601924,-1.4627082,0.2139408
4666827976224,0.93978499,0,,-0.0025760536,-0.0024917367,0.00062973227,9.7729931,-0.420495,0.97078097,0.73995298,-0.071961999,-0.66697103,-0.049387001,-0.38601924,-1.4627082,0.2139408
4666830015744,0.94182451,0,,-0.0025760536,-0.0024917367,0.00062973227,9.7729931,-0.420495,0.97078097,0.73995298,-0.071961999,-0.66697103,-0.049387001,-0.38601924,-1.4627082,0.2139408
4666832012032,0.9438208,0,,-0.00014943508,-0.00021722368,0.004148857,9.8069029,-0.37186101,1.009514,0.73995203,-0.071973003,-0.66697103,-0.049385998,-0.38618985,-1.4627045,0.21409881
4666834005312,0.94581408,0,,-0.00014943508,-0.00021722368,0.004148857,9.8069029,-0.37186101,1.009514,0.73995203,-0.071973003,-0.66697103,-0.049385998,-0.38618985,-1.4627045,0.21409881
4666836004128,0.9478129,0,,-0.00092797413,0.0018401355,0.0019533725,9.7961626,-0.40795699,0.97076398,0.73995501,-0.071975,-0.66696799,-0.049383,-0.3862265,-1.4626924,0.21413683
4666838024192,0.94983296,0,,-0.00092797413,0.0018401355,0.0019533725,9.7961626,-0.40795699,0.97076398,0.73995501,-0.071975,-0.66696799,-0.049383,-0.3862265,-1.4626924,0.21413683
4666840199968,0.95200874,0,,-0.00092797413,0.0018401355,0.0019533725,9.7961626,-0.40795699,0.97076398,0.73995501,-0.071975,-0.66696799,-0.049383,-0.3862265,-1.4626924,0.21413683
4666842064064,0.95387283,0,,0.0017397966,2.6703538e-06,0.0013262058,9.8801241,-0.415696,0.96981901,0.73995799,-0.071979001,-0.66696399,-0.049380001,-0.38628393,-1.4626801,0.21419126
4666844016096,0.95582486,0,,0.0017397966,2.6703538e-06,0.0013262058,9.8801241,-0.415696,0.96981901,0.73995799,-0.071979001,-0.66696399,-0.049380001,-0.38628393,-1.4626801,0.21419126
4666846061856,0.95787062,0,,0.0017397966,2.6703538e-06,0.0013262058,9.8801241,-0.415696,0.96981901,0.73995799,-0.071979001,-0.66696399,-0.049380001,-0.38628393,-1.4626801,0.21419126
4666848021280,0.95983005,0,,-0.00096368357,-0.004665195,0.0010007195,9.8439856,-0.385012,0.98187399,0.73995399,-0.071983002,-0.666969,-0.049378999,-0.38639105,-1.4626906,0.21429444
4666850003488,0.96181226,0,,-0.00096368357,-0.004665195,0.0010007195,9.8439856,-0.385012,0.98187399,0.73995399,-0.071983002,-0.666969,-0.049378999,-0.38639105,-1.4626906,0.21429444
4666851993856,0.96380262,0,,0.0021509264,-0.0019392179,-0.0021473658,9.7828751,-0.393875,0.97136599,0.73994899,-0.071981996,-0.66697401,-0.049380999,-0.38639298,-1.4627066,0.2142954
4666853990496,0.96579926,0,,0.0021509264,-0.0019392179,-0.0021473658,9.7828751,-0.393875,0.97136599,0.73994899,-0.071981996,-0.66697401,-0.049380999,-0.38639298,-1.4627066,0.2142954
4666856017504,0.96782627,0,,0.0021509264,-0.0019392179,-0.0021473658,9.7828751,-0.393875,0.97136599,0.73994899,-0.071981996,-0.66697401,-0.049380999,-0.38639298,-1.4627066,0.2142954
4666857998240,0.96980701,0,,0.0022191339,-0.00067888072,0.00085613633,9.7281141,-0.37016201,0.970635,0.73994702,-0.071976997,-0.66697699,-0.049380001,-0.38635061,-1.4627138,0.2142608
4666860184544,0.97199331,0,,0.0022191339,-0.00067888072,0.00085613633,9.7281141,-0.37016201,0.970635,0.73994702,-0.071976997,-0.66697699,-0.049380001,-0.38635061,-1.4627138,0.2142608
4666861987264,0.97379603,0,,4.352851e-05,-0.0034509522,-0.0022967312,9.6943579,-0.33440399,1.002085,0.73994303,-0.071974002,-0.66698098,-0.049382001,-0.38631945,-1.4627264,0.21423182
4666863983936,0.9757927,0,,4.352851e-05,-0.0034509522,-0.0022967312,9.6943579,-0.33440399,1.002085,0.73994303,-0.071974002,-0.66698098,-0.049382001,-0.38631945,-1.4627264,0.21423182
4666865983360,0.97779213,0,,-0.0040528116,-0.0018490542,0.0018046356,9.6746674,-0.36871698,0.99921399,0.73993897,-0.071973003,-0.66698498,-0.049385998,-0.38629361,-1.4627392,0.21420194
4666867994400,0.97980317,0,,-0.0040528116,-0.0018490542,0.0018046356,9.6746674,-0.36871698,0.99921399,0.73993897,-0.071973003,-0.66698498,-0.049385998,-0.38629361,-1.4627392,0.21420194
4666869984736,0.9817935,0,,-0.0040528116,-0.0018490542,0.0018046356,9.6746674,-0.36871698,0.99921399,0.73993897,-0.071973003,-0.66698498,-0.049385998,-0.38629361,-1.4627392,0.21420194
4666871996096,0.98380486,0,,0.001304302,-0.002384434,0.0037497875,9.7324591,-0.40200999,0.98795301,0.73993701,-0.071980998,-0.666987,-0.049385,-0.3864316,-1.462742,0.21432949
4666873987392,0.98579616,0,,0.001304302,-0.002384434,0.0037497875,9.7324591,-0.40200999,0.98795301,0.73993701,-0.071980998,-0.666987,-0.049385,-0.3864316,-1.462742,0.21432949
4666875975424,0.98778419,0,,0.0016068723,-0.0025583035,0.0035083038,9.709466,-0.42104799,0.98199499,0.73993403,-0.071984001,-0.666991,-0.049373999,-0.38661875,-1.4627432,0.21452839
4666878010592,0.98981936,0,,0.0016068723,-0.0025583035,0.0035083038,9.709466,-0.42104799,0.98199499,0.73993403,-0.071984001,-0.666991,-0.049373999,-0.38661875,-1.4627432,0.21452839
4666880159648,0.99196842,0,,0.0016068723,-0.0025583035,0.0035083038,9.709466,-0.42104799,0.98199499,0.73993403,-0.071984001,-0.666991,-0.049373999,-0.38661875,-1.4627432,0.21452839
4666882115328,0.9939241,0,,0.0022428529,0.00073607516,0.0016775406,9.8342056,-0.395248,1.019861,0.73993599,-0.071988001,-0.66698897,-0.049366999,-0.38674961,-1.4627354,0.21466285
4666884015680,0.99582445,0,,0.0022428529,0.00073607516,0.0016775406,9.8342056,-0.395248,1.019861,0.73993599,-0.071988001,-0.66698897,-0.049366999,-0.38674961,-1.4627354,0.21466285
4666886017632,0.9978264,0,,-0.0046237439,-0.0047659359,0.00083191119,9.8376741,-0.468851,0.99558598,0.73993301,-0.071992002,-0.66699201,-0.049366999,-0.38681333,-1.4627403,0.21472054
4666888062048,0.99987082,0,,-0.0046237439,-0.0047659359,0.00083191119,9.8376741,-0.468851,0.99558598,0.73993301,-0.071992002,-0.66699201,-0.049366999,-0.38681333,-1.4627403,0.21472054
4666890003744,1.0018125,0,,-0.0046237439,-0.0047659359,0.00083191119,9.8376741,-0.468851,0.99558598,0.73993301,-0.071992002,-0.66699201,-0.049366999,-0.38681333,-1.4627403,0.21472054
4666892048096,1.0038569,0,,-0.0014447138,-0.0036882472,-0.00065966461,9.7951727,-0.40022701,1.0135289,0.73992503,-0.072007,-0.66699898,-0.049371,-0.38702339,-1.462758,0.21490437
4666894006688,1.0058155,0,,-0.0014447138,-0.0036882472,-0.00065966461,9.7951727,-0.40022701,1.0135289,0.73992503,-0.072007,-0.66699898,-0.049371,-0.38702339,-1.462758,0.21490437
4666895997984,1.0078068,0,,-0.0014447138,-0.0036882472,-0.00065966461,9.7951727,-0.40022701,1.0135289,0.73992503,-0.072007,-0.66699898,-0.049371,-0.38702339,-1.462758,0.21490437
4666898006464,1.0098152,0,,0.0038912289,-0.0011031179,0.0010079102,9.7738132,-0.38444701,0.97952098,0.739923,-0.072002001,-0.66700101,-0.049369,-0.38700381,-1.4627636,0.21489568
4666900176224,1.011985,0,,0.0038912289,-0.0011031179,0.0010079102,9.7738132,-0.38444701,0.97952098,0.739923,-0.072002001,-0.66700101,-0.049369,-0.38700381,-1.4627636,0.21489568
4666902000352,1.0138091,0,,-0.0017870252,-0.0010166892,-0.0011515857,9.8318949,-0.48499799,0.97592402,0.73992199,-0.071998999,-0.66700298,-0.049369,-0.38697335,-1.4627684,0.2148685
4666904024864,1.0158336,0,,-0.0017870252,-0.0010166892,-0.0011515857,9.8318949,-0.48499799,0.97592402,0.73992199,-0.071998999,-0.66700298,-0.049369,-0.38697335,-1.4627684,0.2148685
4666905994816,1.0178036,0,,-0.0031462003,-0.0023776445,0.00043317326,9.8026314,-0.40556699,1.01828,0.73992002,-0.072011001,-0.66700298,-0.049376,-0.38705221,-1.4627701,0.21492114
4666907989792,1.0197986,0,,-0.0031462003,-0.0023776445,0.00043317326,9.8026314,-0.40556699,1.01828,0.73992002,-0.072011001,-0.66700298,-0.049376,-0.38705221,-1.4627701,0.21492114
4666909989504,1.0217983,0,,-0.0031462003,-0.0023776445,0.00043317326,9.8026314,-0.40556699,1.01828,0.73992002,-0.072011001,-0.66700298,-0.049376,-0.38705221,-1.4627701,0.21492114
4666911987456,1.0237962,0,,0.0004108505,-0.00083260929,-0.00024061109,9.7255201,-0.372738,0.997284,0.73991901,-0.072011001,-0.66700399,-0.049378999,-0.38703411,-1.4627745,0.21489724
4666914084096,1.0258929,0,,0.0004108505,-0.00083260929,-0.00024061109,9.7255201,-0.372738,0.997284,0.73991901,-0.072011001,-0.66700399,-0.049378999,-0.38703411,-1.4627745,0.21489724
4666915994432,1.0278032,0,,-0.0021199293,-0.0029887018,0.00027307421,9.7250338,-0.43506199,0.95921201,0.73991799,-0.072012,-0.667005,-0.049380001,-0.38703467,-1.4627762,0.21489599
4666917992672,1.0298014,0,,-0.0021199293,-0.0029887018,0.00027307421,9.7250338,-0.43506199,0.95921201,0.73991799,-0.072012,-0.667005,-0.049380001,-0.38703467,-1.4627762,0.21489599
4666920180000,1.0319888,0,,-0.0021199293,-0.0029887018,0.00027307421,9.7250338,-0.43506199,0.95921201,0.73991799,-0.072012,-0.667005,-0.049380001,-0.38703467,-1.4627762,0.21489599
4666922034176,1.0338429,0,,-0.0010465518,-0.0040190045,-1.8727383e-05,9.7578907,-0.37264699,1.0015399,0.73990798,-0.072024003,-0.667014,-0.049387001,-0.38718374,-1.4627994,0.21501922
4666923990912,1.0357997,0,,-0.0010465518,-0.0040190045,-1.8727383e-05,9.7578907,-0.37264699,1.0015399,0.73990798,-0.072024003,-0.667014,-0.049387001,-0.38718374,-1.4627994,0.21501922
4666925997760,1.0378065,0,,0.0051385459,-0.00025905922,-0.0013064662,9.7211952,-0.35569301,0.99669397,0.73990798,-0.072016001,-0.66701597,-0.049385,-0.38711137,-1.4628061,0.21495983
4666928023232,1.039832,0,,0.0051385459,-0.00025905922,-0.0013064662,9.7211952,-0.35569301,0.99669397,0.73990798,-0.072016001,-0.66701597,-0.049385,-0.38711137,-1.4628061,0.21495983
4666930023360,1.0418321,0,,0.0051385459,-0.00025905922,-0.0013064662,9.7211952,-0.35569301,0.99669397,0.73990798,-0.072016001,-0.66701597,-0.049385,-0.38711137,-1.4628061,0.21495983
4666931978656,1.0437874,0,,0.0031194443,-0.0026284484,0.0001937839,9.7464933,-0.39228699,0.96708298,0.73990798,-0.072002001,-0.66701698,-0.049378999,-0.38700165,-1.4628098,0.21487752
4666933975200,1.045784,0,,0.0031194443,-0.0026284484,0.0001937839,9.7464933,-0.39228699,0.96708298,0.73990798,-0.072002001,-0.66701698,-0.049378999,-0.38700165,-1.4628098,0.21487752
4666935971232,1.04778,0,,0.0031194443,-0.0026284484,0.0001937839,9.7464933,-0.39228699,0.96708298,0.73990798,-0.072002001,-0.66701698,-0.049378999,-0.38700165,-1.4628098,0.21487752
4666937987264,1.049796,0,,0.0012140684,-0.0035244305,0.0028192478,9.7292175,-0.337733,0.97758698,0.73990399,-0.072002999,-0.66702199,-0.049373001,-0.38712821,-1.4628195,0.21501257
4666940169920,1.0519787,0,,0.0012140684,-0.0035244305,0.0028192478,9.7292175,-0.337733,0.97758698,0.73990399,-0.072002999,-0.66702199,-0.049373001,-0.38712821,-1.4628195,0.21501257
4666942002752,1.0538115,0,,0.0028805263,-0.0016642064,0.0014355857,9.7738752,-0.40233099,0.98613799,0.73989999,-0.071998999,-0.667027,-0.049368002,-0.38717053,-1.4628304,0.21506762
4666943998816,1.0558076,0,,0.0028805263,-0.0016642064,0.0014355857,9.7738752,-0.40233099,0.98613799,0.73989999,-0.071998999,-0.667027,-0.049368002,-0.38717053,-1.4628304,0.21506762
4666946002528,1.0578113,0,,0.0028805263,-0.0016642064,0.0014355857,9.7738752,-0.40233099,0.98613799,0.73989999,-0.071998999,-0.667027,-0.049368002,-0.38717053,-1.4628304,0.21506762
4666948031616,1.0598404,0,,0.000636923,-0.0015919322,-2.6703538e-06,9.8779478,-0.438052,0.99772698,0.73989999,-0.071998999,-0.66702801,-0.049362998,-0.38722063,-1.462831,0.21512426
4666950004672,1.0618134,0,,0.000636923,-0.0015919322,-2.6703538e-06,9.8779478,-0.438052,0.99772698,0.73989999,-0.071998999,-0.66702801,-0.049362998,-0.38722063,-1.462831,0.21512426
4666951996960,1.0638057,0,,-0.0014915584,-0.0013096428,0.002884366,9.8299837,-0.38005099,0.98258799,0.73989803,-0.072004996,-0.66702902,-0.04936,-0.38735279,-1.462831,0.21525277
4666954009248,1.065818,0,,-0.0014915584,-0.0013096428,0.002884366,9.8299837,-0.38005099,0.98258799,0.73989803,-0.072004996,-0.66702902,-0.04936,-0.38735279,-1.462831,0.21525277
4666955999296,1.0678081,0,,-0.0014915584,-0.0013096428,0.002884366,9.8299837,-0.38005099,0.98258799,0.73989803,-0.072004996,-0.66702902,-0.04936,-0.38735279,-1.462831,0.21525277
4666957997024,1.0698058,0,,-0.0058074607,-0.0024485748,-0.00030092966,9.7446365,-0.429481,0.95883399,0.73989397,-0.072012,-0.667032,-0.049368002,-0.38737382,-1.462841,0.21525206
4666960159040,1.0719678,0,,-0.0058074607,-0.0024485748,-0.00030092966,9.7446365,-0.429481,0.95883399,0.73989397,-0.072012,-0.667032,-0.049368002,-0.38737382,-1.462841,0.21525206
4666961995264,1.073804,0,,0.001379229,-0.00094895296,0.00030115658,9.8286438,-0.41566801,1.00207,0.73989099,-0.072020002,-0.66703498,-0.049371999,-0.38745851,-1.4628483,0.21532085
4666964046432,1.0758552,0,,0.001379229,-0.00094895296,0.00030115658,9.8286438,-0.41566801,1.00207,0.73989099,-0.072020002,-0.66703498,-0.049371999,-0.38745851,-1.4628483,0.21532085
4666965996320,1.0778051,0,,0.001379229,-0.00094895296,0.00030115658,9.8286438,-0.41566801,1.00207,0.73989099,-0.072020002,-0.66703498,-0.049371999,-0.38745851,-1.4628483,0.21532085
4666967987840,1.0797966,0,,-0.0017487152,0.00069678782,0.00068434358,9.8119535,-0.40052801,0.96689802,0.73989201,-0.072021,-0.66703302,-0.049371999,-0.38746101,-1.4628427,0.21532017
4666970001696,1.0818105,0,,-0.0017487152,0.00069678782,0.00068434358,9.8119535,-0.40052801,0.96689802,0.73989201,-0.072021,-0.66703302,-0.049371999,-0.38746101,-1.4628427,0.21532017
4666971987456,1.0837962,0,,-0.00437575,-0.0015612669,-0.00095776687,9.7741385,-0.347307,0.99409902,0.73988998,-0.072026998,-0.66703397,-0.049380999,-0.38745745,-1.4628476,0.21529657
4666973986720,1.0857955,0,,-0.00437575,-0.0015612669,-0.00095776687,9.7741385,-0.347307,0.99409902,0.73988998,-0.072026998,-0.66703397,-0.049380999,-0.38745745,-1.4628476,0.21529657
4666975983584,1.0877924,0,,-0.00437575,-0.0015612669,-0.00095776687,9.7741385,-0.347307,0.99409902,0.73988998,-0.072026998,-0.66703397,-0.049380999,-0.38745745,-1.4628476,0.21529657
4666977989888,1.0897987,0,,0.0015382809,-0.0015735714,-0.00041896628,9.7157488,-0.274726,0.98870099,0.73988801,-0.072026998,-0.667036,-0.049387001,-0.38738997,-1.4628564,0.21522105
4666980174464,1.0919832,0,,0.0015382809,-0.0015735714,-0.00041896628,9.7157488,-0.274726,0.98870099,0.73988801,-0.072026998,-0.667036,-0.049387001,-0.38738997,-1.4628564,0.21522105
4666981981408,1.0937902,0,,0.0070708524,0.00080201369,0.0011339055,9.682456,-0.32093298,0.96756101,0.73988998,-0.072011001,-0.667036,-0.049383,-0.38723091,-1.4628581,0.21508989
4666984000832,1.0958096,0,,0.0070708524,0.00080201369,0.0011339055,9.682456,-0.32093298,0.96756101,0.73988998,-0.072011001,-0.667036,-0.049383,-0.38723091,-1.4628581,0.21508989
4666985981600,1.0977904,0,,0.0062517868,-0.0007977027,0.0063299599,9.6783476,-0.396676,0.98356098,0.73989201,-0.071998,-0.66703701,-0.049364999,-0.38725175,-1.4628537,0.21515529
4666987972416,1.0997812,0,,0.0062517868,-0.0007977027,0.0063299599,9.6783476,-0.396676,0.98356098,0.73989201,-0.071998,-0.66703701,-0.049364999,-0.38725175,-1.4628537,0.21515529
4666989986272,1.101795,0,,0.0062517868,-0.0007977027,0.0063299599,9.6783476,-0.396676,0.98356098,0.73989201,-0.071998,-0.66703701,-0.049364999,-0.38725175,-1.4628537,0.21515529
4666992035200,1.103844,0,,0.00018374826,-0.0061893388,0.0047732658,9.7076759,-0.44481,1.039566,0.73988801,-0.072002001,-0.667041,-0.049352001,-0.3874913,-1.4628599,0.21540642
4666993971232,1.10578,0,,0.00018374826,-0.0061893388,0.0047732658,9.7076759,-0.44481,1.039566,0.73988801,-0.072002001,-0.667041,-0.049352001,-0.3874913,-1.4628599,0.21540642
4666995963840,1.1077726,0,,0.00018374826,-0.0061893388,0.0047732658,9.7076759,-0.44481,1.039566,0.73988801,-0.072002001,-0.667041,-0.049352001,-0.3874913,-1.4628599,0.21540642
4666997965056,1.1097738,0,,-0.0028564234,-0.0073087408,0.003471617,9.7521582,-0.474516,0.99889302,0.739878,-0.072015002,-0.66705102,-0.049346,-0.38781774,-1.4628776,0.21572375
4667000161824,1.1119706,0,,-0.0028564234,-0.0073087408,0.003471617,9.7521582,-0.474516,0.99889302,0.739878,-0.072015002,-0.66705102,-0.049346,-0.38781774,-1.4628776,0.21572375
4667001998528,1.1138073,0,,-0.0084354556,-0.0015646004,0.0024720842,9.8084955,-0.468041,1.0015889,0.73987299,-0.072035998,-0.66705501,-0.049348999,-0.38809521,-1.4628824,0.21596753
4667004119616,1.1159284,0,,-0.0084354556,-0.0015646004,0.0024720842,9.8084955,-0.468041,1.0015889,0.73987299,-0.072035998,-0.66705501,-0.049348999,-0.38809521,-1.4628824,0.21596753
4667006063712,1.1178725,0,,-0.0065497321,-0.00026515042,0.0025646566,9.8179131,-0.472018,1.013159,0.73987001,-0.072062001,-0.667054,-0.04936,-0.38831492,-1.4628776,0.21613357
4667008010976,1.1198197,0,,-0.0065497321,-0.00026515042,0.0025646566,9.8179131,-0.472018,1.013159,0.73987001,-0.072062001,-0.667054,-0.04936,-0.38831492,-1.4628776,0.21613357
4667010000608,1.1218094,0,,-0.0065497321,-0.00026515042,0.0025646566,9.8179131,-0.472018,1.013159,0.73987001,-0.072062001,-0.667054,-0.04936,-0.38831492,-1.4628776,0.21613357
4667011996800,1.1238056,0,,0.0039524203,0.0037891971,-0.0015284896,9.9215479,-0.492495,1.004603,0.73987502,-0.072071001,-0.66704798,-0.049359001,-0.38839478,-1.4628581,0.21620317
4667014091840,1.1259006,0,,0.0039524203,0.0037891971,-0.0015284896,9.9215479,-0.492495,1.004603,0.73987502,-0.072071001,-0.66704798,-0.049359001,-0.38839478,-1.4628581,0.21620317
4667015998432,1.1278072,0,,0.0077958798,-0.00034786157,-0.0034522438,9.8401127,-0.35602799,1.0367529,0.73988003,-0.072059996,-0.66704398,-0.049353998,-0.38827514,-1.4628487,0.21610544
4667018013120,1.1298219,0,,0.0077958798,-0.00034786157,-0.0034522438,9.8401127,-0.35602799,1.0367529,0.73988003,-0.072059996,-0.66704398,-0.049353998,-0.38827514,-1.4628487,0.21610544
4667020164576,1.1319733,0,,0.0077958798,-0.00034786157,-0.0034522438,9.8401127,-0.35602799,1.0367529,0.73988003,-0.072059996,-0.66704398,-0.049353998,-0.38827514,-1.4628487,0.21610544
4667021994528,1.1338033,0,,0.003137596,-0.0020102702,-0.0020289103,9.7082815,-0.34060401,0.96986997,0.73988098,-0.072040997,-0.667045,-0.049348999,-0.38809002,-1.4628548,0.21595437
4667023996832,1.1358056,0,,0.003137596,-0.0020102702,-0.0020289103,9.7082815,-0.34060401,0.96986997,0.73988098,-0.072040997,-0.667045,-0.049348999,-0.38809002,-1.4628548,0.21595437
4667025997344,1.1378061,0,,0.0025042507,-0.0016719381,0.0018874514,9.7390995,-0.34522301,0.96587497,0.73987901,-0.072035998,-0.66704798,-0.049346998,-0.38806708,-1.4628648,0.21594062
4667027988352,1.1397971,0,,0.0025042507,-0.0016719381,0.0018874514,9.7390995,-0.34522301,0.96587497,0.73987901,-0.072035998,-0.66704798,-0.049346998,-0.38806708,-1.4628648,0.21594062
4667029986848,1.1417956,0,,0.0025042507,-0.0016719381,0.0018874514,9.7390995,-0.34522301,0.96587497,0.73987901,-0.072035998,-0.66704798,-0.049346998,-0.38806708,-1.4628648,0.21594062
4667031986016,1.1437948,0,,0.0068019667,0.0016834748,0.0026400199,9.7453699,-0.32743499,0.99983001,0.73988098,-0.072027996,-0.66704798,-0.049337998,-0.38806062,-1.4628604,0.21595855
4667033992288,1.1458011,0,,0.0068019667,0.0016834748,0.0026400199,9.7453699,-0.32743499,0.99983001,0.73988098,-0.072027996,-0.66704798,-0.049337998,-0.38806062,-1.4628604,0.21595855
4667035987840,1.1477966,0,,0.0057128119,0.0014411707,0.0012178383,9.6822081,-0.35931399,0.95577902,0.739887,-0.072012998,-0.66704297,-0.049323,-0.38798093,-1.4628466,0.21592198
4667037996192,1.149805,0,,0.0057128119,0.0014411707,0.0012178383,9.6822081,-0.35931399,0.95577902,0.739887,-0.072012998,-0.66704297,-0.049323,-0.38798093,-1.4628466,0.21592198
4667040171008,1.1519798,0,,0.0057128119,0.0014411707,0.0012178383,9.6822081,-0.35931399,0.95577902,0.739887,-0.072012998,-0.66704297,-0.049323,-0.38798093,-1.4628466,0.21592198
4667041982240,1.153791,0,,-0.0039780069,-0.0050140868,0.0020388238,9.7334175,-0.431743,0.95679599,0.73988497,-0.072012,-0.66704601,-0.049322002,-0.38801005,-1.4628532,0.2159532
4667044119904,1.1559287,0,,-0.0039780069,-0.0050140868,0.0020388238,9.7334175,-0.431743,0.95679599,0.73988497,-0.072012,-0.66704601,-0.049322002,-0.38801005,-1.4628532,0.2159532
4667046049504,1.1578583,0,,-0.0039780069,-0.0050140868,0.0020388238,9.7334175,-0.431743,0.95679599,0.73988497,-0.072012,-0.66704601,-0.049322002,-0.38801005,-1.4628532,0.2159532
4667048044256,1.159853,0,,-0.0036895912,-0.0032849541,-0.00069680524,9.7458515,-0.403126,0.97454697,0.73987502,-0.072024003,-0.66705501,-0.049329001,-0.38815526,-1.4628748,0.2160722
4667050022464,1.1618312,0,,-0.0036895912,-0.0032849541,-0.00069680524,9.7458515,-0.403126,0.97454697,0.73987502,-0.072024003,-0.66705501,-0.049329001,-0.38815526,-1.4628748,0.2160722
4667051976832,1.1637856,0,,-0.0016697391,0.0015600102,-0.0031484169,9.7831335,-0.350988,0.99089199,0.73987502,-0.072025999,-0.66705501,-0.049339,-0.38806651,-1.462878,0.21596782
4667053974976,1.1657837,0,,-0.0016697391,0.0015600102,-0.0031484169,9.7831335,-0.350988,0.99089199,0.73987502,-0.072025999,-0.66705501,-0.049339,-0.38806651,-1.462878,0.21596782
4667055969152,1.1677779,0,,-0.0016697391,0.0015600102,-0.0031484169,9.7831335,-0.350988,0.99089199,0.73987502,-0.072025999,-0.66705501,-0.049339,-0.38806651,-1.462878,0.21596782
4667058018240,1.169827,0,,-0.0015762767,0.0023103097,0.00056981511,9.7858019,-0.375503,0.96697801,0.73987901,-0.072021,-0.66705,-0.049345002,-0.38789218,-1.4628713,0.21578968
4667060152032,1.1719608,0,,-0.0015762767,0.0023103097,0.00056981511,9.7858019,-0.375503,0.96697801,0.73987901,-0.072021,-0.66705,-0.049345002,-0.38789218,-1.4628713,0.21578968
4667061992000,1.1738008,0,,0.0008931897,0.00033410838,0.0015324514,9.8045139,-0.32867301,0.98980498,0.73988199,-0.072024003,-0.66704601,-0.049348,-0.38787969,-1.462862,0.21577006
4667063985376,1.1757941,0,,0.0008931897,0.00033410838,0.0015324514,9.8045139,-0.32867301,0.98980498,0.73988199,-0.072024003,-0.66704601,-0.049348,-0.38787969,-1.462862,0.21577006
4667065996480,1.1778052,0,,-0.0005769535,-0.0015722799,-0.00073197366,9.8467722,-0.37391099,0.97869802,0.73988301,-0.072017998,-0.66704601,-0.049348999,-0.38778728,-1.4628643,0.21568499
4667068000544,1.1798093,0,,-0.0005769535,-0.0015722799,-0.00073197366,9.8467722,-0.37391099,0.97869802,0.73988301,-0.072017998,-0.66704601,-0.049348999,-0.38778728,-1.4628643,0.21568499
4667069995744,1.1818045,0,,-0.0005769535,-0.0015722799,-0.00073197366,9.8467722,-0.37391099,0.97869802,0.73988301,-0.072017998,-0.66704601,-0.049348999,-0.38778728,-1.4628643,0.21568499
4667072009440,1.1838182,0,,-0.0021276262,-0.00107802,9.0076442e-05,9.8275509,-0.459461,1.009981,0.73988003,-0.072019003,-0.66704899,-0.049353,-0.38775812,-1.4628748,0.21564842
4667074014048,1.1858228,0,,-0.0021276262,-0.00107802,9.0076442e-05,9.8275509,-0.459461,1.009981,0.73988003,-0.072019003,-0.66704899,-0.049353,-0.38775812,-1.4628748,0.21564842
4667075984960,1.1877937,0,,-0.0021276262,-0.00107802,9.0076442e-05,9.8275509,-0.459461,1.009981,0.73988003,-0.072019003,-0.66704899,-0.049353,-0.38775812,-1.4628748,0.21564842
4667078026592,1.1898354,0,,-0.0009997246,0.0011828968,0.0028314999,9.7077818,-0.38221401,0.99180299,0.73988199,-0.072027996,-0.66704601,-0.049353,-0.38786538,-1.4628632,0.21574321
4667080459584,1.1922684,0,,-0.0009997246,0.0011828968,0.0028314999,9.7077818,-0.38221401,0.99180299,0.73988199,-0.072027996,-0.66704601,-0.049353,-0.38786538,-1.4628632,0.21574321
4667082019520,1.1938283,0,,0.0039308479,-0.0016068374,0.00044699628,9.756012,-0.44251901,0.98837,0.73988402,-0.072024003,-0.66704398,-0.049346,-0.38788402,-1.4628548,0.21577682
4667083999840,1.1958086,0,,0.0039308479,-0.0016068374,0.00044699628,9.756012,-0.44251901,0.98837,0.73988402,-0.072024003,-0.66704398,-0.049346,-0.38788402,-1.4628548,0.21577682
4667085980768,1.1977895,0,,0.0039308479,-0.0016068374,0.00044699628,9.756012,-0.44251901,0.98837,0.73988402,-0.072024003,-0.66704398,-0.049346,-0.38788402,-1.4628548,0.21577682
4667087969952,1.1997787,0,,0.0039308479,-0.0016068374,0.00044699628,9.756012,-0.44251901,0.98837,0.73988402,-0.072024003,-0.66704398,-0.049346,-0.38788402,-1.4628548,0.21577682
4667089976320,1.2017851,0,,0.0039308479,-0.0016068374,0.00044699628,9.756012,-0.44251901,0.98837,0.73988402,-0.072024003,-0.66704398,-0.049346,-0.38788402,-1.4628548,0.21577682
4667092034624,1.2038434,0,,0.0025135708,-0.0015193441,0.001307461,9.7047539,-0.419631,1.016239,0.739887,-0.072017998,-0.66704202,-0.049337998,-0.38788176,-1.4628499,0.21579413
4667093968320,1.2057771,0,,0.0025135708,-0.0015193441,0.001307461,9.7047539,-0.419631,1.016239,0.739887,-0.072017998,-0.66704202,-0.049337998,-0.38788176,-1.4628499,0.21579413
4667095963200,1.207772,0,,0.0025135708,-0.0015193441,0.001307461,9.7047539,-0.419631,1.016239,0.739887,-0.072017998,-0.66704202,-0.049337998,-0.38788176,-1.4628499,0.21579413
4667097993408,1.2098022,0,,0.0062272997,0.0037983775,-0.0010436022,9.7171278,-0.44373101,0.975833,0.73989099,-0.072010003,-0.66703898,-0.04933,-0.38784194,-1.4628388,0.21577778
4667100193504,1.2120023,0,,0.0062272997,0.0037983775,-0.0010436022,9.7171278,-0.44373101,0.975833,0.73989099,-0.072010003,-0.66703898,-0.04933,-0.38784194,-1.4628388,0.21577778
4667101974816,1.2137836,0,,0.00026090926,0.0055979168,0.00028424433,9.7632189,-0.39783299,0.99294102,0.73989999,-0.072004996,-0.66702998,-0.049327999,-0.38772297,-1.4628145,0.21566823
4667103972992,1.2157818,0,,0.00026090926,0.0055979168,0.00028424433,9.7632189,-0.39783299,0.99294102,0.73989999,-0.072004996,-0.66702998,-0.049327999,-0.38772297,-1.4628145,0.21566823
4667105980032,1.2177888,0,,0.00026090926,0.0055979168,0.00028424433,9.7632189,-0.39783299,0.99294102,0.73989999,-0.072004996,-0.66702998,-0.049327999,-0.38772297,-1.4628145,0.21566823
4667107968960,1.2197777,0,,-0.00018720402,0.0030824958,0.0021686239,9.8151646,-0.38040501,1.029496,0.73991001,-0.072006002,-0.66701901,-0.04933,-0.38763382,-1.462788,0.21557557
4667109968256,1.221777,0,,-0.00018720402,0.0030824958,0.0021686239,9.8151646,-0.38040501,1.029496,0.73991001,-0.072006002,-0.66701901,-0.04933,-0.38763382,-1.462788,0.21557557
4667111968800,1.2237776,0,,0.002029591,0.0012425697,0.00300715,9.8347225,-0.45057899,0.99765801,0.73991501,-0.072007,-0.667014,-0.049323998,-0.38768388,-1.4627713,0.21563166
4667114129440,1.2259382,0,,0.002029591,0.0012425697,0.00300715,9.8347225,-0.45057899,0.99765801,0.73991501,-0.072007,-0.667014,-0.049323998,-0.38768388,-1.4627713,0.21563166
4667115999584,1.2278084,0,,0.002029591,0.0012425697,0.00300715,9.8347225,-0.45057899,0.99765801,0.73991501,-0.072007,-0.667014,-0.049323998,-0.38768388,-1.4627713,0.21563166
4667117996736,1.2298055,0,,0.0015635008,-0.00089753555,0.00045900414,9.8680744,-0.427268,0.98567802,0.73991799,-0.072010003,-0.66701001,-0.049316,-0.38777819,-1.4627576,0.21573306
4667120012032,1.2318208,0,,0.0015635008,-0.00089753555,0.00045900414,9.8680744,-0.427268,0.98567802,0.73991799,-0.072010003,-0.66701001,-0.049316,-0.38777819,-1.4627576,0.21573306
4667121983264,1.233792,0,,0.00012852605,-0.0014207504,0.00032370622,9.8056459,-0.40542901,1.005239,0.739914,-0.072013997,-0.667014,-0.049316,-0.38787546,-1.4627675,0.21582439
4667124002208,1.235811,0,,0.00012852605,-0.0014207504,0.00032370622,9.8056459,-0.40542901,1.005239,0.739914,-0.072013997,-0.667014,-0.049316,-0.38787546,-1.4627675,0.21582439
4667125986624,1.2377954,0,,0.00012852605,-0.0014207504,0.00032370622,9.8056459,-0.40542901,1.005239,0.739914,-0.072013997,-0.667014,-0.049316,-0.38787546,-1.4627675,0.21582439
4667127977792,1.2397866,0,,0.0027178441,0.0029665885,-0.003718616,9.7375574,-0.38405201,0.980551,0.73991799,-0.072006002,-0.66701001,-0.049314998,-0.38773721,-1.4627587,0.21569852
4667130023680,1.2418324,0,,0.0027178441,0.0029665885,-0.003718616,9.7375574,-0.38405201,0.980551,0.73991799,-0.072006002,-0.66701001,-0.049314998,-0.38773721,-1.4627587,0.21569852
4667132003232,1.243812,0,,0.0011748859,-0.0017516997,0.0010853679,9.7021551,-0.36562601,0.955634,0.73992097,-0.072001003,-0.66700798,-0.049318001,-0.3876201,-1.4627564,0.21558529
4667133980288,1.2457891,0,,0.0011748859,-0.0017516997,0.0010853679,9.7021551,-0.36562601,0.955634,0.73992097,-0.072001003,-0.66700798,-0.049318001,-0.3876201,-1.4627564,0.21558529
4667135972000,1.2477808,0,,-0.0048516314,-0.0037448308,-0.0003216991,9.7083502,-0.295872,0.99303001,0.739914,-0.072002999,-0.667014,-0.049322002,-0.38766374,-1.4627752,0.21562054
4667137980992,1.2497898,0,,-0.0048516314,-0.0037448308,-0.0003216991,9.7083502,-0.295872,0.99303001,0.739914,-0.072002999,-0.667014,-0.049322002,-0.38766374,-1.4627752,0.21562054
4667140138176,1.2519469,0,,-0.0048516314,-0.0037448308,-0.0003216991,9.7083502,-0.295872,0.99303001,0.739914,-0.072002999,-0.667014,-0.049322002,-0.38766374,-1.4627752,0.21562054
4667141970016,1.2537788,0,,0.00062365849,-0.0040489195,0.00027867673,9.7044487,-0.32845899,0.93878597,0.73990798,-0.071998999,-0.66702199,-0.049327001,-0.38759017,-1.4627961,0.21554509
4667143989664,1.2557984,0,,0.00062365849,-0.0040489195,0.00027867673,9.7044487,-0.32845899,0.93878597,0.73990798,-0.071998999,-0.66702199,-0.049327001,-0.38759017,-1.4627961,0.21554509
4667146000192,1.257809,0,,0.00062365849,-0.0040489195,0.00027867673,9.7044487,-0.32845899,0.93878597,0.73990798,-0.071998999,-0.66702199,-0.049327001,-0.38759017,-1.4627961,0.21554509
4667148008672,1.2598174,0,,0.00012976523,-0.0043620316,0.0015348774,9.7779684,-0.42507198,0.98659599,0.73990101,-0.071996003,-0.66702902,-0.049325999,-0.38763072,-1.4628161,0.21559203
4667149979872,1.2617886,0,,0.00012976523,-0.0043620316,0.0015348774,9.7779684,-0.42507198,0.98659599,0.73990101,-0.071996003,-0.66702902,-0.049325999,-0.38763072,-1.4628161,0.21559203
4667151969536,1.2637783,0,,-0.0014063688,-0.0014674729,0.00043050292,9.7667522,-0.33223501,0.991579,0.73989701,-0.072003998,-0.66703302,-0.049329001,-0.38771607,-1.4628239,0.21566222
4667153972864,1.2657816,0,,-0.0014063688,-0.0014674729,0.00043050292,9.7667522,-0.33223501,0.991579,0.73989701,-0.072003998,-0.66703302,-0.049329001,-0.38771607,-1.4628239,0.21566222
4667155965056,1.2677738,0,,-0.0019583292,0.002021004,0.0032011433,9.7783041,-0.37479499,0.97073001,0.73989898,-0.072004996,-0.66703099,-0.049329001,-0.3877236,-1.462821,0.21566753
4667157970912,1.2697797,0,,-0.0019583292,0.002021004,0.0032011433,9.7783041,-0.37479499,0.97073001,0.73989898,-0.072004996,-0.66703099,-0.049329001,-0.3877236,-1.462821,0.21566753
4667160194976,1.2720037,0,,-0.0019583292,0.002021004,0.0032011433,9.7783041,-0.37479499,0.97073001,0.73989898,-0.072004996,-0.66703099,-0.049329001,-0.3877236,-1.462821,0.21566753
4667161972160,1.2737809,0,,-0.0013894741,-0.00019406315,0.0035469454,9.8337908,-0.42746401,0.99001598,0.73989999,-0.072013997,-0.66702902,-0.049329001,-0.38783292,-1.4628111,0.2157638
4667164027008,1.2758358,0,,-0.0013894741,-0.00019406315,0.0035469454,9.8337908,-0.42746401,0.99001598,0.73989999,-0.072013997,-0.66702902,-0.049329001,-0.38783292,-1.4628111,0.2157638
4667165988800,1.2777976,0,,-0.0013894741,-0.00019406315,0.0035469454,9.8337908,-0.42746401,0.99001598,0.73989999,-0.072013997,-0.66702902,-0.049329001,-0.38783292,-1.4628111,0.2157638
4667167980544,1.2797893,0,,0.0015180874,-0.0012364435,0.0019206302,9.8830223,-0.44080001,0.98623902,0.73990101,-0.072017998,-0.66702801,-0.049323,-0.38794837,-1.4628046,0.2158816
4667169969664,1.2817784,0,,0.0015180874,-0.0012364435,0.0019206302,9.8830223,-0.44080001,0.98623902,0.73990101,-0.072017998,-0.66702801,-0.049323,-0.38794837,-1.4628046,0.2158816
4667171972160,1.2837809,0,,0.004521956,0.00019607029,-0.00094652698,9.8410997,-0.407231,1.019632,0.73990101,-0.072017998,-0.66702801,-0.049318999,-0.38798931,-1.4628034,0.2159284
4667174013248,1.285822,0,,0.004521956,0.00019607029,-0.00094652698,9.8410997,-0.407231,1.019632,0.73990101,-0.072017998,-0.66702801,-0.049318999,-0.38798931,-1.4628034,0.2159284
4667175996096,1.2878049,0,,0.004521956,0.00019607029,-0.00094652698,9.8410997,-0.407231,1.019632,0.73990101,-0.072017998,-0.66702801,-0.049318999,-0.38798931,-1.4628034,0.2159284
4667177996512,1.2898053,0,,0.0055294995,0.00048719122,0.0035288812,9.7084208,-0.41207799,0.97299999,0.739905,-0.072008997,-0.66702497,-0.049309,-0.38796421,-1.4627924,0.21593067
4667180193664,1.2920024,0,,0.0055294995,0.00048719122,0.0035288812,9.7084208,-0.41207799,0.97299999,0.739905,-0.072008997,-0.66702497,-0.049309,-0.38796421,-1.4627924,0.21593067
4667181995264,1.293804,0,,0.0057085529,0.002297377,-0.00090771082,9.7748814,-0.36978701,1.0096639,0.73990703,-0.072002001,-0.66702497,-0.0493,-0.38796994,-1.4627897,0.21595943
4667183980032,1.2957888,0,,0.0057085529,0.002297377,-0.00090771082,9.7748814,-0.36978701,1.0096639,0.73990703,-0.072002001,-0.66702497,-0.0493,-0.38796994,-1.4627897,0.21595943
4667185978560,1.2977873,0,,0.0020494529,-0.00017842501,-0.0019425689,9.7174215,-0.43373799,0.99583399,0.73991102,-0.071989,-0.66702199,-0.049298,-0.38779847,-1.4627857,0.21580879
4667187974464,1.2997832,0,,0.0020494529,-0.00017842501,-0.0019425689,9.7174215,-0.43373799,0.99583399,0.73991102,-0.071989,-0.66702199,-0.049298,-0.38779847,-1.4627857,0.21580879
4667189975808,1.3017846,0,,0.0020494529,-0.00017842501,-0.0019425689,9.7174215,-0.43373799,0.99583399,0.73991102,-0.071989,-0.66702199,-0.049298,-0.38779847,-1.4627857,0.21580879
4667192057600,1.3038664,0,,-7.0179691e-05,-0.00037555994,0.0003259926,9.7674141,-0.41705999,1.0171649,0.73991197,-0.071988001,-0.66702002,-0.049297001,-0.38777789,-1.4627813,0.215791
4667193982912,1.3057917,0,,-7.0179691e-05,-0.00037555994,0.0003259926,9.7674141,-0.41705999,1.0171649,0.73991197,-0.071988001,-0.66702002,-0.049297001,-0.38777789,-1.4627813,0.215791
4667195973728,1.3077825,0,,-0.0024721368,0.00027417377,0.00055660294,9.6691113,-0.41565001,0.98955601,0.739914,-0.071989998,-0.667018,-0.049302001,-0.38773894,-1.4627774,0.2157421
4667197971200,1.30978,0,,-0.0024721368,0.00027417377,0.00055660294,9.6691113,-0.41565001,0.98955601,0.739914,-0.071989998,-0.667018,-0.049302001,-0.38773894,-1.4627774,0.2157421
