t_recv_ns,t_s,t_stamp_ns,frame_id,angular_velocity.x,angular_velocity.y,angular_velocity.z,linear_acceleration.x,linear_acceleration.y,linear_acceleration.z,quaternion.w,quaternion.x,quaternion.y,quaternion.z,rpy.x,rpy.y,rpy.z
21448388317952,0,0,,0.0020284914,0.0024834815,0.00098185242,10.046325,-0.15402099,0.009323,0.74820799,-0.118139,-0.64411098,-0.106527,-0.27107624,-1.4225326,-0.04888997
21448390257504,0.001939552,0,,0.0020284914,0.0024834815,0.00098185242,10.046325,-0.15402099,0.009323,0.74820799,-0.118139,-0.64411098,-0.106527,-0.27107624,-1.4225326,-0.04888997
21448392249280,0.003931328,0,,0.0021601766,-0.0015825598,0.0025399951,9.9241571,-0.126533,0.0085840002,0.748151,-0.118138,-0.64417702,-0.106525,-0.27121005,-1.4227046,-0.04874804
21448394279296,0.005961344,0,,0.0021601766,-0.0015825598,0.0025399951,9.9241571,-0.126533,0.0085840002,0.748151,-0.118138,-0.64417702,-0.106525,-0.27121005,-1.4227046,-0.04874804
21448396266048,0.007948096,0,,0.0033173648,-0.00069266882,0.00032628931,9.8278418,-0.108407,0.059429001,0.74809402,-0.118131,-0.64424598,-0.106519,-0.27132953,-1.4228833,-0.048608853
21448398240704,0.009922752,0,,0.0033173648,-0.00069266882,0.00032628931,9.8278418,-0.108407,0.059429001,0.74809402,-0.118131,-0.64424598,-0.106519,-0.27132953,-1.4228833,-0.048608853
21448400419104,0.012101152,0,,0.0033173648,-0.00069266882,0.00032628931,9.8278418,-0.108407,0.059429001,0.74809402,-0.118131,-0.64424598,-0.106519,-0.27132953,-1.4228833,-0.048608853
21448402229152,0.0139112,0,,0.00082615158,0.0017976367,-0.0020975542,9.7800655,-0.17267101,0.143428,0.74804002,-0.118122,-0.64431,-0.10652,-0.27135096,-1.4230512,-0.048573541
21448404236128,0.015918176,0,,0.00082615158,0.0017976367,-0.0020975542,9.7800655,-0.17267101,0.143428,0.74804002,-0.118122,-0.64431,-0.10652,-0.27135096,-1.4230512,-0.048573541
21448406236928,0.017918976,0,,0.00082615158,0.0017976367,-0.0020975542,9.7800655,-0.17267101,0.143428,0.74804002,-0.118122,-0.64431,-0.10652,-0.27135096,-1.4230512,-0.048573541
21448408229184,0.019911232,0,,0.00082615158,0.0017976367,-0.0020975542,9.7800655,-0.17267101,0.143428,0.74804002,-0.118122,-0.64431,-0.10652,-0.27135096,-1.4230512,-0.048573541
21448410225536,0.021907584,0,,0.00082615158,0.0017976367,-0.0020975542,9.7800655,-0.17267101,0.143428,0.74804002,-0.118122,-0.64431,-0.10652,-0.27135096,-1.4230512,-0.048573541
21448412228416,0.023910464,0,,-0.0033326015,5.2482052e-05,0.006891799,9.7028313,-0.224438,0.353021,0.74793899,-0.118136,-0.64442199,-0.106535,-0.27158664,-1.4233531,-0.048375464
21448414210720,0.025892768,0,,-0.0033326015,5.2482052e-05,0.006891799,9.7028313,-0.224438,0.353021,0.74793899,-0.118136,-0.64442199,-0.106535,-0.27158664,-1.4233531,-0.048375464
21448416215392,0.02789744,0,,0.0010280687,0.0043876879,0.0005516811,9.7661552,-0.30137399,0.51392698,0.74790001,-0.118144,-0.64446598,-0.106532,-0.2717816,-1.4234672,-0.048185834
21448418207616,0.029889664,0,,0.0010280687,0.0043876879,0.0005516811,9.7661552,-0.30137399,0.51392698,0.74790001,-0.118144,-0.64446598,-0.106532,-0.2717816,-1.4234672,-0.048185834
21448420408416,0.032090464,0,,0.0010280687,0.0043876879,0.0005516811,9.7661552,-0.30137399,0.51392698,0.74790001,-0.118144,-0.64446598,-0.106532,-0.2717816,-1.4234672,-0.048185834
21448422253312,0.03393536,0,,-0.001481226,0.0052933744,0.0035055985,9.8737764,-0.307998,0.69485599,0.74787301,-0.118149,-0.64449799,-0.106528,-0.27192819,-1.4235482,-0.048041287
21448424218240,0.035900288,0,,-0.001481226,0.0052933744,0.0035055985,9.8737764,-0.307998,0.69485599,0.74787301,-0.118149,-0.64449799,-0.106528,-0.27192819,-1.4235482,-0.048041287
21448426298624,0.037980672,0,,-0.0045107858,0.0020034634,0.0045658336,9.8887968,-0.34266099,0.87049097,0.74784899,-0.118163,-0.64452201,-0.10653,-0.27211103,-1.4236145,-0.047880436
21448428259872,0.03994192,0,,-0.0045107858,0.0020034634,0.0045658336,9.8887968,-0.34266099,0.87049097,0.74784899,-0.118163,-0.64452201,-0.10653,-0.27211103,-1.4236145,-0.047880436
21448430293824,0.041975872,0,,-0.0045107858,0.0020034634,0.0045658336,9.8887968,-0.34266099,0.87049097,0.74784899,-0.118163,-0.64452201,-0.10653,-0.27211103,-1.4236145,-0.047880436
21448432223072,0.04390512,0,,0.0018932633,0.001175008,0.0021619742,9.9252405,-0.37124801,1.118643,0.74782997,-0.118173,-0.64454299,-0.106525,-0.27229297,-1.4236688,-0.047704231
21448434202816,0.045884864,0,,0.0018932633,0.001175008,0.0021619742,9.9252405,-0.37124801,1.118643,0.74782997,-0.118173,-0.64454299,-0.106525,-0.27229297,-1.4236688,-0.047704231
21448436274336,0.047956384,0,,-0.0027762255,-0.0016692504,0.0032703631,9.8378086,-0.49245501,1.318134,0.74781698,-0.118179,-0.64455801,-0.106517,-0.27245491,-1.4237061,-0.047539402
21448438271840,0.049953888,0,,-0.0027762255,-0.0016692504,0.0032703631,9.8378086,-0.49245501,1.318134,0.74781698,-0.118179,-0.64455801,-0.106517,-0.27245491,-1.4237061,-0.047539402
21448440366208,0.052048256,0,,-0.0027762255,-0.0016692504,0.0032703631,9.8378086,-0.49245501,1.318134,0.74781698,-0.118179,-0.64455801,-0.106517,-0.27245491,-1.4237061,-0.047539402
21448442284256,0.053966304,0,,-0.0018035186,0.00023410101,-0.0034523486,9.7988634,-0.52282602,1.471071,0.74781197,-0.118189,-0.64456302,-0.106519,-0.27255272,-1.4237195,-0.047459274
21448444209280,0.055891328,0,,-0.0018035186,0.00023410101,-0.0034523486,9.7988634,-0.52282602,1.471071,0.74781197,-0.118189,-0.64456302,-0.106519,-0.27255272,-1.4237195,-0.047459274
21448446203488,0.057885536,0,,-0.0039765057,-0.0044875206,-0.0013378472,9.8102455,-0.48263499,1.694715,0.74780899,-0.118194,-0.64456397,-0.106525,-0.27255565,-1.4237233,-0.047471437
21448448237280,0.059919328,0,,-0.0039765057,-0.0044875206,-0.0013378472,9.8102455,-0.48263499,1.694715,0.74780899,-0.118194,-0.64456397,-0.106525,-0.27255565,-1.4237233,-0.047471437
21448450248704,0.061930752,0,,-0.0039765057,-0.0044875206,-0.0013378472,9.8102455,-0.48263499,1.694715,0.74780899,-0.118194,-0.64456397,-0.106525,-0.27255565,-1.4237233,-0.047471437
21448452232224,0.063914272,0,,-0.00011890928,-0.0022069515,0.0012680864,9.6667042,-0.57372999,1.8678221,0.74781197,-0.118204,-0.64455801,-0.106527,-0.27264037,-1.4237098,-0.047403926
21448454196608,0.065878656,0,,-0.00011890928,-0.0022069515,0.0012680864,9.6667042,-0.57372999,1.8678221,0.74781197,-0.118204,-0.64455801,-0.106527,-0.27264037,-1.4237098,-0.047403926
21448456232512,0.06791456,0,,0.00028164378,-0.0011029259,-0.0024520478,9.4697123,-0.61729598,2.0098591,0.74782801,-0.118209,-0.64454001,-0.106526,-0.27265586,-1.4236611,-0.047395113
21448458275104,0.069957152,0,,0.00028164378,-0.0011029259,-0.0024520478,9.4697123,-0.61729598,2.0098591,0.74782801,-0.118209,-0.64454001,-0.106526,-0.27265586,-1.4236611,-0.047395113
21448460402976,0.072085024,0,,0.00028164378,-0.0011029259,-0.0024520478,9.4697123,-0.61729598,2.0098591,0.74782801,-0.118209,-0.64454001,-0.106526,-0.27265586,-1.4236611,-0.047395113
21448462248416,0.073930464,0,,-0.0021200514,-0.0026639832,0.00022038272,9.4389887,-0.556081,2.180656,0.74784899,-0.118214,-0.64451402,-0.106525,-0.27267093,-1.4235936,-0.047387311
21448464330752,0.0760128,0,,-0.0021200514,-0.0026639832,0.00022038272,9.4389887,-0.556081,2.180656,0.74784899,-0.118214,-0.64451402,-0.106525,-0.27267093,-1.4235936,-0.047387311
21448466288736,0.077970784,0,,-0.0041090984,-0.0055264104,0.0038586263,9.43995,-0.603342,2.339715,0.74787301,-0.118226,-0.64448398,-0.106527,-0.27271177,-1.4235173,-0.047367624
21448468270592,0.07995264,0,,-0.0041090984,-0.0055264104,0.0038586263,9.43995,-0.603342,2.339715,0.74787301,-0.118226,-0.64448398,-0.106527,-0.27271177,-1.4235173,-0.047367624
21448470224608,0.081906656,0,,-0.0041090984,-0.0055264104,0.0038586263,9.43995,-0.603342,2.339715,0.74787301,-0.118226,-0.64448398,-0.106527,-0.27271177,-1.4235173,-0.047367624
21448472226784,0.083908832,0,,-0.0070347587,-0.0038704071,0.0011354413,9.436408,-0.62154502,2.4599819,0.74790102,-0.118246,-0.64444602,-0.106531,-0.27281893,-1.4234201,-0.047295352
21448474260608,0.085942656,0,,-0.0070347587,-0.0038704071,0.0011354413,9.436408,-0.62154502,2.4599819,0.74790102,-0.118246,-0.64444602,-0.106531,-0.27281893,-1.4234201,-0.047295352
21448476222464,0.087904512,0,,-0.0074601654,-0.0057263207,-0.0012719261,9.5608788,-0.61973602,2.613481,0.74793297,-0.118263,-0.64440501,-0.106541,-0.27282378,-1.4233157,-0.047331201
21448478215520,0.089897568,0,,-0.0074601654,-0.0057263207,-0.0012719261,9.5608788,-0.61973602,2.613481,0.74793297,-0.118263,-0.64440501,-0.106541,-0.27282378,-1.4233157,-0.047331201
21448480393760,0.092075808,0,,-0.0074601654,-0.0057263207,-0.0012719261,9.5608788,-0.61973602,2.613481,0.74793297,-0.118263,-0.64440501,-0.106541,-0.27282378,-1.4233157,-0.047331201
21448482202688,0.093884736,0,,-0.0030263135,-0.0078449584,0.00031869713,9.5507002,-0.60724401,2.7104769,0.747967,-0.118278,-0.64436102,-0.106552,-0.27280254,-1.4232059,-0.047390211
21448484237728,0.095919776,0,,-0.0030263135,-0.0078449584,0.00031869713,9.5507002,-0.60724401,2.7104769,0.747967,-0.118278,-0.64436102,-0.106552,-0.27280254,-1.4232059,-0.047390211
21448486231616,0.097913664,0,,0.00098890356,-0.001149247,-0.00059199821,9.5823889,-0.60099,2.7360749,0.74801099,-0.118279,-0.64431,-0.106554,-0.2726889,-1.423073,-0.047509537
21448488212480,0.099894528,0,,0.00098890356,-0.001149247,-0.00059199821,9.5823889,-0.60099,2.7360749,0.74801099,-0.118279,-0.64431,-0.106554,-0.2726889,-1.423073,-0.047509537
21448490295232,0.10197728,0,,0.00098890356,-0.001149247,-0.00059199821,9.5823889,-0.60099,2.7360749,0.74801099,-0.118279,-0.64431,-0.106554,-0.2726889,-1.423073,-0.047509537
21448492242848,0.1039249,0,,0.0036011727,0.00031705651,-0.00042636647,9.6437321,-0.55941498,2.775274,0.74806303,-0.118274,-0.64424998,-0.106553,-0.27252407,-1.4229172,-0.047667837
21448494202112,0.10588416,0,,0.0036011727,0.00031705651,-0.00042636647,9.6437321,-0.55941498,2.775274,0.74806303,-0.118274,-0.64424998,-0.106553,-0.27252407,-1.4229172,-0.047667837
21448496300864,0.10798291,0,,-0.00285302,-0.0019692201,0.00012346459,9.6287994,-0.571015,2.7760689,0.74811399,-0.118268,-0.64419103,-0.106555,-0.27232951,-1.4227616,-0.047859809
21448498234208,0.10991626,0,,-0.00285302,-0.0019692201,0.00012346459,9.6287994,-0.571015,2.7760689,0.74811399,-0.118268,-0.64419103,-0.106555,-0.27232951,-1.4227616,-0.047859809
21448500399488,0.11208154,0,,-0.00285302,-0.0019692201,0.00012346459,9.6287994,-0.571015,2.7760689,0.74811399,-0.118268,-0.64419103,-0.106555,-0.27232951,-1.4227616,-0.047859809
21448502233984,0.11391603,0,,-0.00091355769,0.0013399591,-0.0011539418,9.5067778,-0.51814699,2.7135589,0.74816501,-0.118272,-0.64412999,-0.106565,-0.2721612,-1.4226053,-0.04804968
21448504246496,0.11592854,0,,-0.00091355769,0.0013399591,-0.0011539418,9.5067778,-0.51814699,2.7135589,0.74816501,-0.118272,-0.64412999,-0.106565,-0.2721612,-1.4226053,-0.04804968
21448506352960,0.11803501,0,,0.0038106647,0.0047439268,-0.0032435547,9.4753675,-0.50755501,2.6265619,0.74822199,-0.11826,-0.64406502,-0.106571,-0.27186051,-1.4224351,-0.04834232
21448508194560,0.11987661,0,,0.0038106647,0.0047439268,-0.0032435547,9.4753675,-0.50755501,2.6265619,0.74822199,-0.11826,-0.64406502,-0.106571,-0.27186051,-1.4224351,-0.04834232
21448510187264,0.12186931,0,,0.0038106647,0.0047439268,-0.0032435547,9.4753675,-0.50755501,2.6265619,0.74822199,-0.11826,-0.64406502,-0.106571,-0.27186051,-1.4224351,-0.04834232
21448512220160,0.12390221,0,,0.0029754721,0.0048624,-0.00090867076,9.5287733,-0.496856,2.553417,0.74827701,-0.118245,-0.64400297,-0.106577,-0.27153239,-1.4222742,-0.048659307
21448514215744,0.12589779,0,,0.0029754721,0.0048624,-0.00090867076,9.5287733,-0.496856,2.553417,0.74827701,-0.118245,-0.64400297,-0.106577,-0.27153239,-1.4222742,-0.048659307
21448516217280,0.12789933,0,,0.0040530209,0.0011640473,-0.0033793764,9.5008793,-0.50792199,2.4261041,0.748326,-0.118233,-0.64394802,-0.106581,-0.27126341,-1.4221294,-0.048919573
21448518215648,0.1298977,0,,0.0040530209,0.0011640473,-0.0033793764,9.5008793,-0.50792199,2.4261041,0.748326,-0.118233,-0.64394802,-0.106581,-0.27126341,-1.4221294,-0.048919573
21448520388128,0.13207018,0,,0.0040530209,0.0011640473,-0.0033793764,9.5008793,-0.50792199,2.4261041,0.748326,-0.118233,-0.64394802,-0.106581,-0.27126341,-1.4221294,-0.048919573
21448522261696,0.13394374,0,,0.004222702,0.0043203357,-0.0087201538,9.5223637,-0.46899799,2.2878089,0.74836999,-0.118212,-0.64389902,-0.10659,-0.27087339,-1.4220042,-0.049293597
21448524218336,0.13590038,0,,0.004222702,0.0043203357,-0.0087201538,9.5223637,-0.46899799,2.2878089,0.74836999,-0.118212,-0.64389902,-0.10659,-0.27087339,-1.4220042,-0.049293597
21448526208032,0.13789008,0,,0.0042918867,0.0050087985,-0.0058738182,9.4893923,-0.43314099,2.1145749,0.74840999,-0.118187,-0.64385402,-0.106603,-0.27041994,-1.4218885,-0.049730401
21448528212480,0.13989453,0,,0.0042918867,0.0050087985,-0.0058738182,9.4893923,-0.43314099,2.1145749,0.74840999,-0.118187,-0.64385402,-0.106603,-0.27041994,-1.4218885,-0.049730401
21448530328448,0.1420105,0,,0.0042918867,0.0050087985,-0.0058738182,9.4893923,-0.43314099,2.1145749,0.74840999,-0.118187,-0.64385402,-0.106603,-0.27041994,-1.4218885,-0.049730401
21448532232352,0.1439144,0,,0.001371218,0.00010168288,-0.0074156943,9.6064558,-0.40107501,1.957083,0.74844098,-0.118167,-0.643821,-0.106613,-0.27006199,-1.421804,-0.050076621
21448534220320,0.14590237,0,,0.001371218,0.00010168288,-0.0074156943,9.6064558,-0.40107501,1.957083,0.74844098,-0.118167,-0.643821,-0.106613,-0.27006199,-1.421804,-0.050076621
21448536220992,0.14790304,0,,0.0010090795,-0.0026455876,-0.0021498442,9.7283812,-0.481702,1.769933,0.74845803,-0.118152,-0.64380199,-0.106626,-0.26975648,-1.4217568,-0.05037809
21448538339232,0.15002128,0,,0.0010090795,-0.0026455876,-0.0021498442,9.7283812,-0.481702,1.769933,0.74845803,-0.118152,-0.64380199,-0.106626,-0.26975648,-1.4217568,-0.05037809
21448540410560,0.15209261,0,,0.0010090795,-0.0026455876,-0.0021498442,9.7283812,-0.481702,1.769933,0.74845803,-0.118152,-0.64380199,-0.106626,-0.26975648,-1.4217568,-0.05037809
21448542222848,0.1539049,0,,0.0050606693,0.0016796524,-0.00030815534,9.7728014,-0.41302899,1.577883,0.74847102,-0.118147,-0.64378798,-0.106622,-0.26971119,-1.4217223,-0.050412212
21448544207840,0.15588989,0,,0.0050606693,0.0016796524,-0.00030815534,9.7728014,-0.41302899,1.577883,0.74847102,-0.118147,-0.64378798,-0.106622,-0.26971119,-1.4217223,-0.050412212
21448546268960,0.15795101,0,,0.0030079877,0.00053707273,-0.0015071617,9.7929859,-0.420968,1.372998,0.748478,-0.118137,-0.64378101,-0.106623,-0.26959213,-1.4217028,-0.050517873
21448548260800,0.15994285,0,,0.0030079877,0.00053707273,-0.0015071617,9.7929859,-0.420968,1.372998,0.748478,-0.118137,-0.64378101,-0.106623,-0.26959213,-1.4217028,-0.050517873
21448550213280,0.16189533,0,,0.0030079877,0.00053707273,-0.0015071617,9.7929859,-0.420968,1.372998,0.748478,-0.118137,-0.64378101,-0.106623,-0.26959213,-1.4217028,-0.050517873
21448552224480,0.16390653,0,,0.0051627016,-0.00073535957,-0.0044641508,9.813858,-0.44145501,1.1612951,0.748474,-0.118128,-0.64378899,-0.10662,-0.26953742,-1.4217202,-0.0505547
21448554235680,0.16591773,0,,0.0051627016,-0.00073535957,-0.0044641508,9.813858,-0.44145501,1.1612951,0.748474,-0.118128,-0.64378899,-0.10662,-0.26953742,-1.4217202,-0.0505547
21448556203136,0.16788518,0,,-0.0022767297,0.0032583727,-0.0061979956,9.8329887,-0.29886201,1.044812,0.74846399,-0.118118,-0.64380097,-0.106627,-0.26940348,-1.4217542,-0.050684745
21448558214848,0.1698969,0,,-0.0022767297,0.0032583727,-0.0061979956,9.8329887,-0.29886201,1.044812,0.74846399,-0.118118,-0.64380097,-0.106627,-0.26940348,-1.4217542,-0.050684745
21448560403264,0.17208531,0,,-0.0022767297,0.0032583727,-0.0061979956,9.8329887,-0.29886201,1.044812,0.74846399,-0.118118,-0.64380097,-0.106627,-0.26940348,-1.4217542,-0.050684745
21448562226272,0.17390832,0,,0.0016860055,0.0037426841,-0.0089427701,9.8370399,-0.47291499,0.81606197,0.74844998,-0.118106,-0.64381498,-0.106646,-0.26913638,-1.4217985,-0.050960124
21448564238528,0.17592058,0,,0.0016860055,0.0037426841,-0.0089427701,9.8370399,-0.47291499,0.81606197,0.74844998,-0.118106,-0.64381498,-0.106646,-0.26913638,-1.4217985,-0.050960124
21448566190720,0.17787277,0,,0.002060274,0.0016451822,-0.0068246041,9.7489433,-0.228972,0.69351202,0.74842799,-0.118097,-0.64384198,-0.106654,-0.26902499,-1.4218698,-0.051070637
21448568237760,0.17991981,0,,0.002060274,0.0016451822,-0.0068246041,9.7489433,-0.228972,0.69351202,0.74842799,-0.118097,-0.64384198,-0.106654,-0.26902499,-1.4218698,-0.051070637
21448570216672,0.18189872,0,,0.002060274,0.0016451822,-0.0068246041,9.7489433,-0.228972,0.69351202,0.74842799,-0.118097,-0.64384198,-0.106654,-0.26902499,-1.4218698,-0.051070637
21448572190592,0.18387264,0,,0.0011808723,0.0022864512,-0.0044193483,9.8222418,-0.298013,0.549182,0.74839997,-0.118082,-0.64387399,-0.106667,-0.26882033,-1.4219584,-0.051269817
21448574230624,0.18591267,0,,0.0011808723,0.0022864512,-0.0044193483,9.8222418,-0.298013,0.549182,0.74839997,-0.118082,-0.64387399,-0.106667,-0.26882033,-1.4219584,-0.051269817
21448576217632,0.18789968,0,,0.00016727236,-0.00080897757,-0.0042243774,9.7530832,-0.316899,0.408999,0.74836498,-0.118076,-0.64391601,-0.106673,-0.26878907,-1.4220693,-0.051301787
21448578180992,0.18986304,0,,0.00016727236,-0.00080897757,-0.0042243774,9.7530832,-0.316899,0.408999,0.74836498,-0.118076,-0.64391601,-0.106673,-0.26878907,-1.4220693,-0.051301787
21448580381216,0.19206326,0,,0.00016727236,-0.00080897757,-0.0042243774,9.7530832,-0.316899,0.408999,0.74836498,-0.118076,-0.64391601,-0.106673,-0.26878907,-1.4220693,-0.051301787
21448582211776,0.19389382,0,,-0.0026601434,2.8763026e-05,-0.0012357978,9.7919607,-0.177874,0.341133,0.748321,-0.118078,-0.64396501,-0.10668,-0.26883922,-1.4222003,-0.051262622
21448584212416,0.19589446,0,,-0.0026601434,2.8763026e-05,-0.0012357978,9.7919607,-0.177874,0.341133,0.748321,-0.118078,-0.64396501,-0.10668,-0.26883922,-1.4222003,-0.051262622
21448586270496,0.19795254,0,,0.003409745,-0.0045167202,0.0031488707,9.8205738,-0.27996001,0.238709,0.74827498,-0.118079,-0.64401799,-0.106682,-0.26893504,-1.4223395,-0.051169091
21448588216576,0.19989862,0,,0.003409745,-0.0045167202,0.0031488707,9.8205738,-0.27996001,0.238709,0.74827498,-0.118079,-0.64401799,-0.106682,-0.26893504,-1.4223395,-0.051169091
21448590214016,0.20189606,0,,0.003409745,-0.0045167202,0.0031488707,9.8205738,-0.27996001,0.238709,0.74827498,-0.118079,-0.64401799,-0.106682,-0.26893504,-1.4223395,-0.051169091
21448592207744,0.20388979,0,,0.0077730156,0.0042131375,-0.0013276545,9.9175024,-0.31702599,0.192193,0.74822903,-0.118073,-0.64407498,-0.106667,-0.26911289,-1.4224846,-0.050959059
21448594217568,0.20589962,0,,0.0077730156,0.0042131375,-0.0013276545,9.9175024,-0.31702599,0.192193,0.74822903,-0.118073,-0.64407498,-0.106667,-0.26911289,-1.4224846,-0.050959059
21448596291648,0.2079737,0,,0.0027887219,0.0068434533,-0.0029595374,9.9756012,-0.172021,0.155286,0.74819201,-0.118063,-0.64412099,-0.106661,-0.26914633,-1.4226029,-0.050901601
21448598205504,0.20988755,0,,0.0027887219,0.0068434533,-0.0029595374,9.9756012,-0.172021,0.155286,0.74819201,-0.118063,-0.64412099,-0.106661,-0.26914633,-1.4226029,-0.050901601
21448600367104,0.21204915,0,,0.0027887219,0.0068434533,-0.0029595374,9.9756012,-0.172021,0.155286,0.74819201,-0.118063,-0.64412099,-0.106661,-0.26914633,-1.4226029,-0.050901601
21448602239136,0.21392118,0,,0.00013035864,0.0024183282,-0.0046388407,9.9316711,-0.22634199,0.15175299,0.748146,-0.118053,-0.64417499,-0.106668,-0.2690842,-1.4227441,-0.050958327
21448604240320,0.21592237,0,,0.00013035864,0.0024183282,-0.0046388407,9.9316711,-0.22634199,0.15175299,0.748146,-0.118053,-0.64417499,-0.106668,-0.2690842,-1.4227441,-0.050958327
21448606216672,0.21789872,0,,0.0012104906,-0.0023811877,-0.0031173325,9.8621798,-0.236378,0.191228,0.74809402,-0.118045,-0.64423597,-0.106674,-0.26907586,-1.4229075,-0.05096089
21448608198272,0.21988032,0,,0.0012104906,-0.0023811877,-0.0031173325,9.8621798,-0.236378,0.191228,0.74809402,-0.118045,-0.64423597,-0.106674,-0.26907586,-1.4229075,-0.05096089
21448610237856,0.2219199,0,,0.0012104906,-0.0023811877,-0.0031173325,9.8621798,-0.236378,0.191228,0.74809402,-0.118045,-0.64423597,-0.106674,-0.26907586,-1.4229075,-0.05096089
21448612214496,0.22389654,0,,0.00033309608,0.0005679825,-0.003241478,9.8918705,-0.177,0.23209199,0.74804097,-0.118042,-0.644297,-0.106682,-0.26909091,-1.423071,-0.050951257
21448614194144,0.22587619,0,,0.00033309608,0.0005679825,-0.003241478,9.8918705,-0.177,0.23209199,0.74804097,-0.118042,-0.644297,-0.106682,-0.26909091,-1.423071,-0.050951257
21448616225024,0.22790707,0,,0.0018171146,-0.00012067206,0.0044562446,9.8694925,-0.14421199,0.29320499,0.74799401,-0.11804,-0.64435202,-0.106681,-0.26917959,-1.4232127,-0.05085577
21448618247104,0.22992915,0,,0.0018171146,-0.00012067206,0.0044562446,9.8694925,-0.14421199,0.29320499,0.74799401,-0.11804,-0.64435202,-0.106681,-0.26917959,-1.4232127,-0.05085577
21448620399680,0.23208173,0,,0.0018171146,-0.00012067206,0.0044562446,9.8694925,-0.14421199,0.29320499,0.74799401,-0.11804,-0.64435202,-0.106681,-0.26917959,-1.4232127,-0.05085577
21448622205984,0.23388803,0,,0.0026391123,-0.00096190329,0.0040162818,9.785182,-0.15531801,0.38181499,0.74795002,-0.118041,-0.64440399,-0.106672,-0.26936386,-1.4233484,-0.050659229
21448624225472,0.23590752,0,,0.0026391123,-0.00096190329,0.0040162818,9.785182,-0.15531801,0.38181499,0.74795002,-0.118041,-0.64440399,-0.106672,-0.26936386,-1.4233484,-0.050659229
21448626256640,0.23793869,0,,-0.0068087037,-0.0048281914,0.0023560898,9.7603569,-0.248978,0.503416,0.74790299,-0.118046,-0.64445698,-0.106674,-0.26951247,-1.4234888,-0.050519321
21448628245888,0.23992794,0,,-0.0068087037,-0.0048281914,0.0023560898,9.7603569,-0.248978,0.503416,0.74790299,-0.118046,-0.64445698,-0.106674,-0.26951247,-1.4234888,-0.050519321
21448630297760,0.24197981,0,,-0.0068087037,-0.0048281914,0.0023560898,9.7603569,-0.248978,0.503416,0.74790299,-0.118046,-0.64445698,-0.106674,-0.26951247,-1.4234888,-0.050519321
21448632222016,0.24390406,0,,-0.00838985,-0.0056308859,0.00078401935,9.8030834,-0.196364,0.65118599,0.74785602,-0.118064,-0.64450699,-0.106683,-0.2697137,-1.4236215,-0.050354355
21448634187424,0.24586947,0,,-0.00838985,-0.0056308859,0.00078401935,9.8030834,-0.196364,0.65118599,0.74785602,-0.118064,-0.64450699,-0.106683,-0.2697137,-1.4236215,-0.050354355
21448636221120,0.24790317,0,,-0.0054273455,-0.0095248726,0.0037295418,9.7469816,-0.15072601,0.79530197,0.74781102,-0.118081,-0.64455497,-0.106692,-0.26990557,-1.423752,-0.050197957
21448638321216,0.25000326,0,,-0.0054273455,-0.0095248726,0.0037295418,9.7469816,-0.15072601,0.79530197,0.74781102,-0.118081,-0.64455497,-0.106692,-0.26990557,-1.423752,-0.050197957
21448640420864,0.25210291,0,,-0.0054273455,-0.0095248726,0.0037295418,9.7469816,-0.15072601,0.79530197,0.74781102,-0.118081,-0.64455497,-0.106692,-0.26990557,-1.423752,-0.050197957
21448642210368,0.25389242,0,,-0.0028206265,-0.0042908222,0.0039880424,9.7291107,-0.27710801,0.94259298,0.747774,-0.118087,-0.64459598,-0.106696,-0.27002183,-1.4238621,-0.050095837
21448644206240,0.25588829,0,,-0.0028206265,-0.0042908222,0.0039880424,9.7291107,-0.27710801,0.94259298,0.747774,-0.118087,-0.64459598,-0.106696,-0.27002183,-1.4238621,-0.050095837
21448646203392,0.25788544,0,,-0.0024198816,-0.0029859269,0.0025388258,9.7554007,-0.30427101,1.116137,0.74774897,-0.118099,-0.64462298,-0.106694,-0.27020955,-1.4239324,-0.049921163
21448648203392,0.25988544,0,,-0.0024198816,-0.0029859269,0.0025388258,9.7554007,-0.30427101,1.116137,0.74774897,-0.118099,-0.64462298,-0.106694,-0.27020955,-1.4239324,-0.049921163
21448650227168,0.26190922,0,,-0.0024198816,-0.0029859269,0.0025388258,9.7554007,-0.30427101,1.116137,0.74774897,-0.118099,-0.64462298,-0.106694,-0.27020955,-1.4239324,-0.049921163
21448652223488,0.26390554,0,,-0.0033681365,-0.0016643635,0.0011377278,9.8683691,-0.302201,1.29956,0.747733,-0.118104,-0.64463997,-0.106698,-0.270264,-1.4239785,-0.049878856
21448654200736,0.26588278,0,,-0.0033681365,-0.0016643635,0.0011377278,9.8683691,-0.302201,1.29956,0.747733,-0.118104,-0.64463997,-0.106698,-0.270264,-1.4239785,-0.049878856
21448656199744,0.26788179,0,,-0.010274946,-0.00076784012,0.0039567313,9.7813025,-0.34046301,1.4693069,0.74772602,-0.11812,-0.64464402,-0.106708,-0.27034988,-1.423994,-0.049830232
21448658211552,0.2698936,0,,-0.010274946,-0.00076784012,0.0039567313,9.7813025,-0.34046301,1.4693069,0.74772602,-0.11812,-0.64464402,-0.106708,-0.27034988,-1.423994,-0.049830232
21448660436800,0.27211885,0,,-0.010274946,-0.00076784012,0.0039567313,9.7813025,-0.34046301,1.4693069,0.74772602,-0.11812,-0.64464402,-0.106708,-0.27034988,-1.423994,-0.049830232
21448662275808,0.27395786,0,,-0.0070054374,-0.004037121,0.0030363667,9.7051497,-0.385447,1.647783,0.74772102,-0.11814,-0.64464402,-0.106718,-0.27046929,-1.4239997,-0.049754782
21448664218400,0.27590045,0,,-0.0070054374,-0.004037121,0.0030363667,9.7051497,-0.385447,1.647783,0.74772102,-0.11814,-0.64464402,-0.106718,-0.27046929,-1.4239997,-0.049754782
21448666267008,0.27794906,0,,-0.00093376858,-0.0027048065,0.0058663135,9.6250849,-0.422629,1.790952,0.747724,-0.118154,-0.644638,-0.106719,-0.27059188,-1.4239865,-0.049653361
21448668194336,0.27987638,0,,-0.00093376858,-0.0027048065,0.0058663135,9.6250849,-0.422629,1.790952,0.747724,-0.118154,-0.644638,-0.106719,-0.27059188,-1.4239865,-0.049653361
21448670192000,0.28187405,0,,-0.00093376858,-0.0027048065,0.0058663135,9.6250849,-0.422629,1.790952,0.747724,-0.118154,-0.644638,-0.106719,-0.27059188,-1.4239865,-0.049653361
21448672231136,0.28391318,0,,-0.0016224406,-0.0030612028,0.0018492113,9.6687174,-0.48600098,1.958257,0.74773598,-0.11816,-0.64462399,-0.106715,-0.27066738,-1.4239475,-0.049580598
21448674220000,0.28590205,0,,-0.0016224406,-0.0030612028,0.0018492113,9.6687174,-0.48600098,1.958257,0.74773598,-0.11816,-0.64462399,-0.106715,-0.27066738,-1.4239475,-0.049580598
21448676189888,0.28787194,0,,-0.010321371,-0.0024276833,0.0016516574,9.5963659,-0.51963902,2.0867319,0.74775201,-0.118175,-0.644602,-0.106721,-0.27073679,-1.4238914,-0.049542499
21448678184512,0.28986656,0,,-0.010321371,-0.0024276833,0.0016516574,9.5963659,-0.51963902,2.0867319,0.74775201,-0.118175,-0.644602,-0.106721,-0.27073679,-1.4238914,-0.049542499
21448680387936,0.29206998,0,,-0.010321371,-0.0024276833,0.0016516574,9.5963659,-0.51963902,2.0867319,0.74775201,-0.118175,-0.644602,-0.106721,-0.27073679,-1.4238914,-0.049542499
21448682207840,0.29388989,0,,-0.0094102391,-0.00071619586,-0.0017143322,9.5838261,-0.58724701,2.2143581,0.74777198,-0.118197,-0.64457101,-0.10674,-0.27073268,-1.4238197,-0.049605366
21448684185472,0.29586752,0,,-0.0094102391,-0.00071619586,-0.0017143322,9.5838261,-0.58724701,2.2143581,0.74777198,-0.118197,-0.64457101,-0.10674,-0.27073268,-1.4238197,-0.049605366
21448686236832,0.29791888,0,,0.00019413297,-0.0037221939,-0.00031105257,9.5537834,-0.56905597,2.3347161,0.74779803,-0.118207,-0.64453697,-0.106748,-0.27069436,-1.4237343,-0.049671371
21448688218560,0.29990061,0,,0.00019413297,-0.0037221939,-0.00031105257,9.5537834,-0.56905597,2.3347161,0.74779803,-0.118207,-0.64453697,-0.106748,-0.27069436,-1.4237343,-0.049671371
21448690177792,0.30185984,0,,0.00019413297,-0.0037221939,-0.00031105257,9.5537834,-0.56905597,2.3347161,0.74779803,-0.118207,-0.64453697,-0.106748,-0.27069436,-1.4237343,-0.049671371
21448692180320,0.30386237,0,,-0.0008122588,-0.0040647497,0.0021335079,9.5410213,-0.61349398,2.407896,0.74782997,-0.11821,-0.64450097,-0.106745,-0.2706874,-1.4236395,-0.049680326
21448694206912,0.30588896,0,,-0.0008122588,-0.0040647497,0.0021335079,9.5410213,-0.61349398,2.407896,0.74782997,-0.11821,-0.64450097,-0.106745,-0.2706874,-1.4236395,-0.049680326
21448696315776,0.30799782,0,,0.0043257986,0.0041375123,0.0041410379,9.510561,-0.58449399,2.495604,0.74786997,-0.118214,-0.64445502,-0.106736,-0.27072246,-1.4235143,-0.049639904
21448698286304,0.30996835,0,,0.0043257986,0.0041375123,0.0041410379,9.510561,-0.58449399,2.495604,0.74786997,-0.118214,-0.64445502,-0.106736,-0.27072246,-1.4235143,-0.049639904
21448700418624,0.31210067,0,,0.0043257986,0.0041375123,0.0041410379,9.510561,-0.58449399,2.495604,0.74786997,-0.118214,-0.64445502,-0.106736,-0.27072246,-1.4235143,-0.049639904
21448702267968,0.31395002,0,,0.0065003216,0.0059155315,0.0030335218,9.5055637,-0.65151697,2.5353141,0.74792498,-0.118209,-0.64439398,-0.106723,-0.27065456,-1.4233504,-0.049683538
21448704212736,0.31589478,0,,0.0065003216,0.0059155315,0.0030335218,9.5055637,-0.65151697,2.5353141,0.74792498,-0.118209,-0.64439398,-0.106723,-0.27065456,-1.4233504,-0.049683538
21448706214720,0.31789677,0,,-0.002464527,0.0033841235,-0.00096382316,9.6036577,-0.627509,2.5885301,0.74797797,-0.11821,-0.644333,-0.10672,-0.27057399,-1.4231905,-0.049761781
21448708207424,0.31988947,0,,-0.002464527,0.0033841235,-0.00096382316,9.6036577,-0.627509,2.5885301,0.74797797,-0.11821,-0.644333,-0.10672,-0.27057399,-1.4231905,-0.049761781
21448710204352,0.3218864,0,,-0.002464527,0.0033841235,-0.00096382316,9.6036577,-0.627509,2.5885301,0.74797797,-0.11821,-0.644333,-0.10672,-0.27057399,-1.4231905,-0.049761781
21448712206464,0.32388851,0,,-0.002464527,0.0033841235,-0.00096382316,9.6036577,-0.627509,2.5885301,0.74797797,-0.11821,-0.644333,-0.10672,-0.27057399,-1.4231905,-0.049761781
21448714202656,0.3258847,0,,-0.002464527,0.0033841235,-0.00096382316,9.6036577,-0.627509,2.5885301,0.74797797,-0.11821,-0.644333,-0.10672,-0.27057399,-1.4231905,-0.049761781
21448716258912,0.32794096,0,,-0.0017522059,0.0049663346,0.0011106228,9.5605574,-0.587125,2.531527,0.748079,-0.11822,-0.64421201,-0.106725,-0.27040799,-1.4228746,-0.049953541
21448718198752,0.3298808,0,,-0.0017522059,0.0049663346,0.0011106228,9.5605574,-0.587125,2.531527,0.748079,-0.11822,-0.64421201,-0.106725,-0.27040799,-1.4228746,-0.049953541
21448720370880,0.33205293,0,,-0.0017522059,0.0049663346,0.0011106228,9.5605574,-0.587125,2.531527,0.748079,-0.11822,-0.64421201,-0.106725,-0.27040799,-1.4228746,-0.049953541
21448722228704,0.33391075,0,,-0.0014800392,0.0011002905,0.00022141247,9.5508556,-0.59314299,2.472672,0.74812901,-0.118225,-0.64415401,-0.106728,-0.27031305,-1.4227228,-0.050061524
21448724193952,0.335876,0,,-0.0014800392,0.0011002905,0.00022141247,9.5508556,-0.59314299,2.472672,0.74812901,-0.118225,-0.64415401,-0.106728,-0.27031305,-1.4227228,-0.050061524
21448726194624,0.33787667,0,,0.0019091634,-0.00053646184,-0.0005538104,9.5534973,-0.50326502,2.3973989,0.74817002,-0.118227,-0.64410502,-0.10673,-0.27021999,-1.4225947,-0.050161912
21448728224640,0.33990669,0,,0.0019091634,-0.00053646184,-0.0005538104,9.5534973,-0.50326502,2.3973989,0.74817002,-0.118227,-0.64410502,-0.10673,-0.27021999,-1.4225947,-0.050161912
21448730325472,0.34200752,0,,0.0019091634,-0.00053646184,-0.0005538104,9.5534973,-0.50326502,2.3973989,0.74817002,-0.118227,-0.64410502,-0.10673,-0.27021999,-1.4225947,-0.050161912
21448732205088,0.34388714,0,,0.003403619,0.00094453728,-0.00097570888,9.5332909,-0.51806098,2.2750239,0.748209,-0.118217,-0.64406097,-0.106732,-0.27001477,-1.4224798,-0.050356814
21448734190784,0.34587283,0,,0.003403619,0.00094453728,-0.00097570888,9.5332909,-0.51806098,2.2750239,0.748209,-0.118217,-0.64406097,-0.106732,-0.27001477,-1.4224798,-0.050356814
21448736251616,0.34793366,0,,0.0061162969,0.0034797851,-0.0028020564,9.5820951,-0.49766201,2.1486549,0.74824798,-0.118203,-0.64401901,-0.106732,-0.26979851,-1.4223681,-0.050555453
21448738213344,0.34989539,0,,0.0061162969,0.0034797851,-0.0028020564,9.5820951,-0.49766201,2.1486549,0.74824798,-0.118203,-0.64401901,-0.106732,-0.26979851,-1.4223681,-0.050555453
21448740385760,0.35206781,0,,0.0061162969,0.0034797851,-0.0028020564,9.5820951,-0.49766201,2.1486549,0.74824798,-0.118203,-0.64401901,-0.106732,-0.26979851,-1.4223681,-0.050555453
21448742278496,0.35396054,0,,0.0050231972,0.0057416796,-0.00019310324,9.6182079,-0.44851601,2.015027,0.74828601,-0.118187,-0.643978,-0.106727,-0.269592,-1.4222589,-0.050733161
21448744219232,0.35590128,0,,0.0050231972,0.0057416796,-0.00019310324,9.6182079,-0.44851601,2.015027,0.74828601,-0.118187,-0.643978,-0.106727,-0.269592,-1.4222589,-0.050733161
21448746191392,0.35787344,0,,0.0034487008,0.0071003833,-0.0017912838,9.6600685,-0.39795199,1.8723609,0.74831897,-0.118176,-0.643942,-0.106728,-0.26939502,-1.422163,-0.050916245
21448748201248,0.3598833,0,,0.0034487008,0.0071003833,-0.0017912838,9.6600685,-0.39795199,1.8723609,0.74831897,-0.118176,-0.643942,-0.106728,-0.26939502,-1.422163,-0.050916245
21448750207008,0.36188906,0,,0.0034487008,0.0071003833,-0.0017912838,9.6600685,-0.39795199,1.8723609,0.74831897,-0.118176,-0.643942,-0.106728,-0.26939502,-1.422163,-0.050916245
21448752236224,0.36391827,0,,0.0034452974,0.0081410359,-0.0029539697,9.7065525,-0.37895501,1.712657,0.748348,-0.118163,-0.64390898,-0.106732,-0.26916774,-1.4220766,-0.051132543
21448754205952,0.365888,0,,0.0034452974,0.0081410359,-0.0029539697,9.7065525,-0.37895501,1.712657,0.748348,-0.118163,-0.64390898,-0.106732,-0.26916774,-1.4220766,-0.051132543
21448756206176,0.36788822,0,,0.0005959427,0.0026850495,-0.0021587978,9.7425251,-0.375,1.5468709,0.74836802,-0.11815,-0.64388698,-0.106738,-0.26894445,-1.4220222,-0.051345613
21448758216320,0.36989837,0,,0.0005959427,0.0026850495,-0.0021587978,9.7425251,-0.375,1.5468709,0.74836802,-0.11815,-0.64388698,-0.106738,-0.26894445,-1.4220222,-0.051345613
21448760376096,0.37205814,0,,0.0005959427,0.0026850495,-0.0021587978,9.7425251,-0.375,1.5468709,0.74836802,-0.11815,-0.64388698,-0.106738,-0.26894445,-1.4220222,-0.051345613
21448762204064,0.37388611,0,,-0.0025975038,-0.0023216718,-0.00091600115,9.7430925,-0.346239,1.3848619,0.74837101,-0.11815,-0.643884,-0.106742,-0.26890146,-1.4220143,-0.051394028
21448764364576,0.37604662,0,,-0.0025975038,-0.0023216718,-0.00091600115,9.7430925,-0.346239,1.3848619,0.74837101,-0.11815,-0.643884,-0.106742,-0.26890146,-1.4220143,-0.051394028
21448766272832,0.37795488,0,,-0.0015611796,0.0029535159,-0.0014396348,9.7714539,-0.28124601,1.2243381,0.748366,-0.118149,-0.64388698,-0.106753,-0.26879952,-1.4220276,-0.051510741
21448768201632,0.37988368,0,,-0.0015611796,0.0029535159,-0.0014396348,9.7714539,-0.28124601,1.2243381,0.748366,-0.118149,-0.64388698,-0.106753,-0.26879952,-1.4220276,-0.051510741
21448770200928,0.38188298,0,,-0.0015611796,0.0029535159,-0.0014396348,9.7714539,-0.28124601,1.2243381,0.748366,-0.118149,-0.64388698,-0.106753,-0.26879952,-1.4220276,-0.051510741
21448772228448,0.3839105,0,,0.00061329121,0.0019524125,-0.0019001748,9.7923498,-0.31510898,1.054094,0.748362,-0.118143,-0.64389199,-0.106762,-0.26866503,-1.4220436,-0.051649754
21448774183296,0.38586534,0,,0.00061329121,0.0019524125,-0.0019001748,9.7923498,-0.31510898,1.054094,0.748362,-0.118143,-0.64389199,-0.106762,-0.26866503,-1.4220436,-0.051649754
21448776186656,0.3878687,0,,0.00099002058,0.0041676193,-0.0028111319,9.7010355,-0.330919,0.86770302,0.748353,-0.118134,-0.64390397,-0.106767,-0.26855413,-1.4220749,-0.051754982
21448778215136,0.38989718,0,,0.00099002058,0.0041676193,-0.0028111319,9.7010355,-0.330919,0.86770302,0.748353,-0.118134,-0.64390397,-0.106767,-0.26855413,-1.4220749,-0.051754982
21448780377344,0.39205939,0,,0.00099002058,0.0041676193,-0.0028111319,9.7010355,-0.330919,0.86770302,0.748353,-0.118134,-0.64390397,-0.106767,-0.26855413,-1.4220749,-0.051754982
21448782198048,0.3938801,0,,0.0044074453,0.0059693055,-0.0016349372,9.8162317,-0.26858401,0.73103702,0.74833697,-0.118126,-0.64392298,-0.106769,-0.26849329,-1.4221254,-0.051805857
21448784271808,0.39595386,0,,0.0044074453,0.0059693055,-0.0016349372,9.8162317,-0.26858401,0.73103702,0.74833697,-0.118126,-0.64392298,-0.106769,-0.26849329,-1.4221254,-0.051805857
21448786279808,0.39796186,0,,0.0035678718,0.0059387447,0.00036388371,9.7589769,-0.21628501,0.61794198,0.74831897,-0.118117,-0.64394599,-0.106768,-0.26844511,-1.4221855,-0.051838863
21448788210688,0.39989274,0,,0.0035678718,0.0059387447,0.00036388371,9.7589769,-0.21628501,0.61794198,0.74831897,-0.118117,-0.64394599,-0.106768,-0.26844511,-1.4221855,-0.051838863
21448790178688,0.40186074,0,,0.0035678718,0.0059387447,0.00036388371,9.7589769,-0.21628501,0.61794198,0.74831897,-0.118117,-0.64394599,-0.106768,-0.26844511,-1.4221855,-0.051838863
21448792211808,0.40389386,0,,0.0043549105,0.0076449436,-0.00044828781,9.7371092,-0.29067999,0.45047,0.74830002,-0.118104,-0.64397103,-0.106765,-0.26838978,-1.422248,-0.051869839
21448794178464,0.40586051,0,,0.0043549105,0.0076449436,-0.00044828781,9.7371092,-0.29067999,0.45047,0.74830002,-0.118104,-0.64397103,-0.106765,-0.26838978,-1.422248,-0.051869839
21448796264352,0.4079464,0,,0.0013690537,0.0013897009,0.0018255271,9.8796148,-0.231601,0.395735,0.74826998,-0.118101,-0.64400703,-0.106762,-0.26844977,-1.4223411,-0.051801109
21448798237088,0.40991914,0,,0.0013690537,0.0013897009,0.0018255271,9.8796148,-0.231601,0.395735,0.74826998,-0.118101,-0.64400703,-0.106762,-0.26844977,-1.4223411,-0.051801109
21448800415552,0.4120976,0,,0.0013690537,0.0013897009,0.0018255271,9.8796148,-0.231601,0.395735,0.74826998,-0.118101,-0.64400703,-0.106762,-0.26844977,-1.4223411,-0.051801109
21448802205344,0.41388739,0,,0.0026361453,0.0030191753,0.0047558476,9.8467779,-0.19974101,0.31509301,0.74823201,-0.118103,-0.64405197,-0.106753,-0.26863832,-1.4224556,-0.051601513
21448804178912,0.41586096,0,,0.0026361453,0.0030191753,0.0047558476,9.8467779,-0.19974101,0.31509301,0.74823201,-0.118103,-0.64405197,-0.106753,-0.26863832,-1.4224556,-0.051601513
21448806208064,0.41789011,0,,0.00052366859,-0.00040413099,0.0027550022,9.9327459,-0.238381,0.271817,0.74819201,-0.118104,-0.644099,-0.106746,-0.26880187,-1.4225778,-0.051426544
21448808205856,0.4198879,0,,0.00052366859,-0.00040413099,0.0027550022,9.9327459,-0.238381,0.271817,0.74819201,-0.118104,-0.644099,-0.106746,-0.26880187,-1.4225778,-0.051426544
21448810200768,0.42188282,0,,0.00052366859,-0.00040413099,0.0027550022,9.9327459,-0.238381,0.271817,0.74819201,-0.118104,-0.644099,-0.106746,-0.26880187,-1.4225778,-0.051426544
21448812202048,0.4238841,0,,-0.0059170155,0.0011457388,0.0016551307,9.8690872,-0.23427799,0.233904,0.748142,-0.118117,-0.64415401,-0.106747,-0.26903052,-1.4227235,-0.05121796
21448814198176,0.42588022,0,,-0.0059170155,0.0011457388,0.0016551307,9.8690872,-0.23427799,0.233904,0.748142,-0.118117,-0.64415401,-0.106747,-0.26903052,-1.4227235,-0.05121796
21448816200128,0.42788218,0,,0.0042947839,0.0024932376,0.00056358425,9.9223175,-0.24434599,0.241552,0.74809897,-0.118118,-0.64420402,-0.106748,-0.26912947,-1.4228541,-0.051120101
21448818193984,0.42987603,0,,0.0042947839,0.0024932376,0.00056358425,9.9223175,-0.24434599,0.241552,0.74809897,-0.118118,-0.64420402,-0.106748,-0.26912947,-1.4228541,-0.051120101
21448820405600,0.43208765,0,,0.0042947839,0.0024932376,0.00056358425,9.9223175,-0.24434599,0.241552,0.74809897,-0.118118,-0.64420402,-0.106748,-0.26912947,-1.4228541,-0.051120101
21448822196736,0.43387878,0,,0.0016293521,-0.0031992583,0.00065793674,9.9352837,-0.309324,0.26943901,0.74805301,-0.118115,-0.64425898,-0.106743,-0.2692509,-1.4229974,-0.05098515
21448824331424,0.43601347,0,,0.0016293521,-0.0031992583,0.00065793674,9.9352837,-0.309324,0.26943901,0.74805301,-0.118115,-0.64425898,-0.106743,-0.2692509,-1.4229974,-0.05098515
21448826253248,0.4379353,0,,-0.0042446931,-0.0021542773,4.194026e-05,9.9308262,-0.21165501,0.31425601,0.74800098,-0.118125,-0.64431798,-0.10674,-0.26948657,-1.4231517,-0.050757682
21448828279040,0.43996109,0,,-0.0042446931,-0.0021542773,4.194026e-05,9.9308262,-0.21165501,0.31425601,0.74800098,-0.118125,-0.64431798,-0.10674,-0.26948657,-1.4231517,-0.050757682
21448830262144,0.44194419,0,,-0.0042446931,-0.0021542773,4.194026e-05,9.9308262,-0.21165501,0.31425601,0.74800098,-0.118125,-0.64431798,-0.10674,-0.26948657,-1.4231517,-0.050757682
21448832196064,0.44387811,0,,-0.002098549,-0.0035399291,0.0022517539,9.808465,-0.30168399,0.35632199,0.74795097,-0.118135,-0.644373,-0.106745,-0.26965431,-1.4232981,-0.050608753
21448834226368,0.44590842,0,,-0.002098549,-0.0035399291,0.0022517539,9.808465,-0.30168399,0.35632199,0.74795097,-0.118135,-0.644373,-0.106745,-0.26965431,-1.4232981,-0.050608753
21448836202944,0.44788499,0,,-0.0034909028,-0.0044603808,0.00063381634,9.7622509,-0.278043,0.43799901,0.74790299,-0.118146,-0.64442801,-0.106743,-0.26989615,-1.4234424,-0.050378527
21448838245792,0.44992784,0,,-0.0034909028,-0.0044603808,0.00063381634,9.7622509,-0.278043,0.43799901,0.74790299,-0.118146,-0.64442801,-0.106743,-0.26989615,-1.4234424,-0.050378527
21448840393376,0.45207542,0,,-0.0034909028,-0.0044603808,0.00063381634,9.7622509,-0.278043,0.43799901,0.74790299,-0.118146,-0.64442801,-0.106743,-0.26989615,-1.4234424,-0.050378527
21448842213472,0.45389552,0,,-0.0022830128,-0.00086477574,0.00076218526,9.794301,-0.34026799,0.54609799,0.747859,-0.118155,-0.64447701,-0.106745,-0.27006582,-1.4235725,-0.050223261
21448844184768,0.45586682,0,,-0.0022830128,-0.00086477574,0.00076218526,9.794301,-0.34026799,0.54609799,0.747859,-0.118155,-0.64447701,-0.106745,-0.27006582,-1.4235725,-0.050223261
21448846179424,0.45786147,0,,-0.0033782243,-0.0016977341,0.0056265052,9.7785244,-0.33610401,0.680107,0.747823,-0.118169,-0.644517,-0.106738,-0.27035318,-1.4236753,-0.049945876
21448848226720,0.45990877,0,,-0.0033782243,-0.0016977341,0.0056265052,9.7785244,-0.33610401,0.680107,0.747823,-0.118169,-0.644517,-0.106738,-0.27035318,-1.4236753,-0.049945876
21448850180960,0.46186301,0,,-0.0033782243,-0.0016977341,0.0056265052,9.7785244,-0.33610401,0.680107,0.747823,-0.118169,-0.644517,-0.106738,-0.27035318,-1.4236753,-0.049945876
21448852187104,0.46386915,0,,-0.0033956602,0.0031989267,0.0077796132,9.7830057,-0.34885499,0.832093,0.747796,-0.118187,-0.64454699,-0.10673,-0.27066855,-1.4237537,-0.049643778
21448854208256,0.4658903,0,,-0.0033956602,0.0031989267,0.0077796132,9.7830057,-0.34885499,0.832093,0.747796,-0.118187,-0.64454699,-0.10673,-0.27066855,-1.4237537,-0.049643778
21448856224928,0.46790698,0,,-0.0041177204,0.0039590176,0.0047619562,9.734519,-0.39253801,0.98392999,0.74778003,-0.118207,-0.64456201,-0.106726,-0.27094279,-1.4237933,-0.049390653
21448858194944,0.46987699,0,,-0.0041177204,0.0039590176,0.0047619562,9.734519,-0.39253801,0.98392999,0.74778003,-0.118207,-0.64456201,-0.106726,-0.27094279,-1.4237933,-0.049390653
21448860384032,0.47206608,0,,-0.0041177204,0.0039590176,0.0047619562,9.734519,-0.39253801,0.98392999,0.74778003,-0.118207,-0.64456201,-0.106726,-0.27094279,-1.4237933,-0.049390653
21448862250944,0.47393299,0,,0.000744924,-0.0010684208,0.0018591422,9.8178368,-0.41004398,1.163061,0.747765,-0.118216,-0.64457899,-0.10672,-0.27112007,-1.4238344,-0.049216436
21448864365760,0.47604781,0,,0.000744924,-0.0010684208,0.0018591422,9.8178368,-0.41004398,1.163061,0.747765,-0.118216,-0.64457899,-0.10672,-0.27112007,-1.4238344,-0.049216436
21448866208480,0.47789053,0,,-0.0059036284,0.00085880671,-0.00031454325,9.8239326,-0.40242299,1.3316079,0.74775398,-0.118225,-0.64459002,-0.106722,-0.27122262,-1.4238649,-0.049130374
21448868208672,0.47989072,0,,-0.0059036284,0.00085880671,-0.00031454325,9.8239326,-0.40242299,1.3316079,0.74775398,-0.118225,-0.64459002,-0.106722,-0.27122262,-1.4238649,-0.049130374
21448870208160,0.48189021,0,,-0.0059036284,0.00085880671,-0.00031454325,9.8239326,-0.40242299,1.3316079,0.74775398,-0.118225,-0.64459002,-0.106722,-0.27122262,-1.4238649,-0.049130374
21448872205280,0.48388733,0,,-0.0025235365,-0.005252097,0.0029399374,9.7529869,-0.356962,1.499468,0.74774498,-0.118239,-0.64459598,-0.106728,-0.27132796,-1.4238848,-0.04905281
21448874189536,0.48587158,0,,-0.0025235365,-0.005252097,0.0029399374,9.7529869,-0.356962,1.499468,0.74774498,-0.118239,-0.64459598,-0.106728,-0.27132796,-1.4238848,-0.04905281
21448876191488,0.48787354,0,,-0.0041817915,-0.0061662307,0.0064396364,9.6737986,-0.45040399,1.65476,0.74773902,-0.118253,-0.64460099,-0.106727,-0.27149687,-1.4238982,-0.048903411
21448878184800,0.48986685,0,,-0.0041817915,-0.0061662307,0.0064396364,9.6737986,-0.45040399,1.65476,0.74773902,-0.118253,-0.64460099,-0.106727,-0.27149687,-1.4238982,-0.048903411
21448880347680,0.49202973,0,,-0.0041817915,-0.0061662307,0.0064396364,9.6737986,-0.45040399,1.65476,0.74773902,-0.118253,-0.64460099,-0.106727,-0.27149687,-1.4238982,-0.048903411
21448882182976,0.49386502,0,,0.0036731501,-0.003553822,0.0052024425,9.6704788,-0.42207,1.823481,0.747742,-0.118265,-0.64459801,-0.106716,-0.27170272,-1.423886,-0.048698876
21448884216992,0.49589904,0,,0.0036731501,-0.003553822,0.0052024425,9.6704788,-0.42207,1.823481,0.747742,-0.118265,-0.64459801,-0.106716,-0.27170272,-1.423886,-0.048698876
21448886190176,0.49787222,0,,0.00116958,-0.0029463776,0.0045814719,9.678297,-0.44201401,1.984966,0.74775499,-0.118267,-0.64458299,-0.106705,-0.27179846,-1.4238444,-0.048590385
21448888183104,0.49986515,0,,0.00116958,-0.0029463776,0.0045814719,9.678297,-0.44201401,1.984966,0.74775499,-0.118267,-0.64458299,-0.106705,-0.27179846,-1.4238444,-0.048590385
21448890211040,0.50189309,0,,0.00116958,-0.0029463776,0.0045814719,9.678297,-0.44201401,1.984966,0.74775499,-0.118267,-0.64458299,-0.106705,-0.27179846,-1.4238444,-0.048590385
21448892178784,0.50386083,0,,-0.0048486468,-0.0038835846,-0.0013236576,9.5865135,-0.46591699,2.1194091,0.74777198,-0.118272,-0.64456201,-0.106706,-0.27179595,-1.4237886,-0.048603892
21448894177056,0.5058591,0,,-0.0048486468,-0.0038835846,-0.0013236576,9.5865135,-0.46591699,2.1194091,0.74777198,-0.118272,-0.64456201,-0.106706,-0.27179595,-1.4237886,-0.048603892
21448896356768,0.50803882,0,,-0.0013410237,-0.0075707496,0.0033274528,9.5593262,-0.50604999,2.2396071,0.74778998,-0.118281,-0.644539,-0.106713,-0.27178191,-1.4237318,-0.048639079
21448898367936,0.51004998,0,,-0.0013410237,-0.0075707496,0.0033274528,9.5593262,-0.50604999,2.2396071,0.74778998,-0.118281,-0.644539,-0.106713,-0.27178191,-1.4237318,-0.048639079
21448900412288,0.51209434,0,,-0.0013410237,-0.0075707496,0.0033274528,9.5593262,-0.50604999,2.2396071,0.74778998,-0.118281,-0.644539,-0.106713,-0.27178191,-1.4237318,-0.048639079
21448902235552,0.5139176,0,,-0.001303953,-0.0097989421,0.0012810194,9.5147476,-0.46964699,2.35567,0.74780899,-0.118287,-0.644517,-0.10671,-0.27182308,-1.4236724,-0.048604346
21448904245312,0.51592736,0,,-0.001303953,-0.0097989421,0.0012810194,9.5147476,-0.46964699,2.35567,0.74780899,-0.118287,-0.644517,-0.10671,-0.27182308,-1.4236724,-0.048604346
21448906174848,0.5178569,0,,-0.0067648437,-0.006880594,0.001384081,9.5339003,-0.50573498,2.4430511,0.747832,-0.118296,-0.64448702,-0.106717,-0.27180324,-1.4235993,-0.048647161
21448908213696,0.51989574,0,,-0.0067648437,-0.006880594,0.001384081,9.5339003,-0.50573498,2.4430511,0.747832,-0.118296,-0.64448702,-0.106717,-0.27180324,-1.4235993,-0.048647161
21448910259424,0.52194147,0,,-0.0067648437,-0.006880594,0.001384081,9.5339003,-0.50573498,2.4430511,0.747832,-0.118296,-0.64448702,-0.106717,-0.27180324,-1.4235993,-0.048647161
21448912232608,0.52391466,0,,-0.0053591384,9.1315623e-05,-0.00024569,9.4984455,-0.47442499,2.5046179,0.74786502,-0.118306,-0.64444399,-0.10673,-0.27170848,-1.4234914,-0.048776786
21448914169728,0.52585178,0,,-0.0053591384,9.1315623e-05,-0.00024569,9.4984455,-0.47442499,2.5046179,0.74786502,-0.118306,-0.64444399,-0.10673,-0.27170848,-1.4234914,-0.048776786
21448916180768,0.52786282,0,,-0.002975158,-0.00076515232,0.0058371841,9.5084963,-0.55555099,2.536639,0.74790901,-0.118313,-0.644391,-0.106735,-0.27163329,-1.4233548,-0.048869988
21448918199232,0.52988128,0,,-0.002975158,-0.00076515232,0.0058371841,9.5084963,-0.55555099,2.536639,0.74790901,-0.118313,-0.644391,-0.106735,-0.27163329,-1.4233548,-0.048869988
21448920290496,0.53197254,0,,-0.002975158,-0.00076515232,0.0058371841,9.5084963,-0.55555099,2.536639,0.74790901,-0.118313,-0.644391,-0.106735,-0.27163329,-1.4233548,-0.048869988
21448922201152,0.5338832,0,,-0.0064127936,-0.0036356081,0.0025557205,9.5683966,-0.52349401,2.5693741,0.74795002,-0.118328,-0.64434099,-0.106737,-0.27168063,-1.4232236,-0.048849844
21448924198784,0.53588083,0,,-0.0064127936,-0.0036356081,0.0025557205,9.5683966,-0.52349401,2.5693741,0.74795002,-0.118328,-0.64434099,-0.106737,-0.27168063,-1.4232236,-0.048849844
21448926191072,0.53787312,0,,-0.0020206549,-0.00024806365,0.0014462845,9.609375,-0.56074601,2.5858059,0.74799001,-0.118337,-0.644292,-0.106744,-0.27161686,-1.4230978,-0.04893762
21448928196928,0.53987898,0,,-0.0020206549,-0.00024806365,0.0014462845,9.609375,-0.56074601,2.5858059,0.74799001,-0.118337,-0.644292,-0.106744,-0.27161686,-1.4230978,-0.04893762
21448930344384,0.54202643,0,,-0.0020206549,-0.00024806365,0.0014462845,9.609375,-0.56074601,2.5858059,0.74799001,-0.118337,-0.644292,-0.106744,-0.27161686,-1.4230978,-0.04893762
21448932209504,0.54389155,0,,0.0011155272,0.0044692993,-0.0014414848,9.6087112,-0.53075802,2.54073,0.74803901,-0.118336,-0.644234,-0.106745,-0.27147229,-1.4229484,-0.049084085
21448934241824,0.54592387,0,,0.0011155272,0.0044692993,-0.0014414848,9.6087112,-0.53075802,2.54073,0.74803901,-0.118336,-0.644234,-0.106745,-0.27147229,-1.4229484,-0.049084085
21448936199456,0.5478815,0,,0.0030599461,0.0060993499,0.00083922409,9.6112738,-0.59468299,2.468045,0.748092,-0.118326,-0.64417398,-0.10675,-0.27120945,-1.4227905,-0.049341085
21448938242016,0.54992406,0,,0.0030599461,0.0060993499,0.00083922409,9.6112738,-0.59468299,2.468045,0.748092,-0.118326,-0.64417398,-0.10675,-0.27120945,-1.4227905,-0.049341085
21448940402048,0.5520841,0,,0.0030599461,0.0060993499,0.00083922409,9.6112738,-0.59468299,2.468045,0.748092,-0.118326,-0.64417398,-0.10675,-0.27120945,-1.4227905,-0.049341085
21448942186144,0.55386819,0,,0.00253914,0.0041146312,-0.0010306867,9.6113091,-0.53438002,2.3823421,0.748142,-0.118321,-0.644117,-0.106748,-0.27107541,-1.4226395,-0.049467289
21448944218400,0.55590045,0,,0.00253914,0.0041146312,-0.0010306867,9.6113091,-0.53438002,2.3823421,0.748142,-0.118321,-0.644117,-0.106748,-0.27107541,-1.4226395,-0.049467289
21448946221920,0.55790397,0,,0.00079627158,0.0073296326,-0.00041407935,9.597024,-0.54021901,2.2809019,0.74819201,-0.118313,-0.64406097,-0.106749,-0.2708584,-1.4224918,-0.049676206
21448948181216,0.55986326,0,,0.00079627158,0.0073296326,-0.00041407935,9.597024,-0.54021901,2.2809019,0.74819201,-0.118313,-0.64406097,-0.106749,-0.2708584,-1.4224918,-0.049676206
21448950182048,0.5618641,0,,0.00079627158,0.0073296326,-0.00041407935,9.597024,-0.54021901,2.2809019,0.74819201,-0.118313,-0.64406097,-0.106749,-0.2708584,-1.4224918,-0.049676206
21448952189472,0.56387152,0,,0.0036147863,0.0014832681,-0.0027505341,9.5105944,-0.493334,2.141706,0.74823201,-0.118307,-0.64401501,-0.106752,-0.27069698,-1.4223717,-0.049834926
21448954209824,0.56589187,0,,0.0036147863,0.0014832681,-0.0027505341,9.5105944,-0.493334,2.141706,0.74823201,-0.118307,-0.64401501,-0.106752,-0.27069698,-1.4223717,-0.049834926
21448956178368,0.56786042,0,,0.0019065802,0.0032141111,-0.0022863464,9.5807533,-0.49508101,1.995706,0.74826401,-0.118293,-0.64397901,-0.106754,-0.27046278,-1.4222788,-0.050053322
21448958187200,0.56986925,0,,0.0019065802,0.0032141111,-0.0022863464,9.5807533,-0.49508101,1.995706,0.74826401,-0.118293,-0.64397901,-0.106754,-0.27046278,-1.4222788,-0.050053322
21448960377920,0.57205997,0,,0.0019065802,0.0032141111,-0.0022863464,9.5807533,-0.49508101,1.995706,0.74826401,-0.118293,-0.64397901,-0.106754,-0.27046278,-1.4222788,-0.050053322
21448962206816,0.57388886,0,,0.0014871077,0.0073353048,-0.0034309507,9.6283312,-0.49195001,1.869975,0.74829602,-0.118286,-0.64394301,-0.106758,-0.27028475,-1.4221849,-0.050227226
21448964297536,0.57597958,0,,0.0014871077,0.0073353048,-0.0034309507,9.6283312,-0.49195001,1.869975,0.74829602,-0.118286,-0.64394301,-0.106758,-0.27028475,-1.4221849,-0.050227226
21448966251168,0.57793322,0,,0.0088632883,0.0041778121,-0.0014090567,9.6483669,-0.476107,1.693738,0.74832302,-0.118272,-0.64391398,-0.106755,-0.27010257,-1.422108,-0.050386642
21448968220576,0.57990262,0,,0.0088632883,0.0041778121,-0.0014090567,9.6483669,-0.476107,1.693738,0.74832302,-0.118272,-0.64391398,-0.106755,-0.27010257,-1.422108,-0.050386642
21448970171968,0.58185402,0,,0.0088632883,0.0041778121,-0.0014090567,9.6483669,-0.476107,1.693738,0.74832302,-0.118272,-0.64391398,-0.106755,-0.27010257,-1.422108,-0.050386642
21448972171520,0.58385357,0,,0.0077594023,0.00687733,0.00015369369,9.7381124,-0.40253899,1.532086,0.74834502,-0.118256,-0.64389402,-0.106744,-0.27000151,-1.42205,-0.050448777
21448974195872,0.58587792,0,,0.0077594023,0.00687733,0.00015369369,9.7381124,-0.40253899,1.532086,0.74834502,-0.118256,-0.64389402,-0.106744,-0.27000151,-1.42205,-0.050448777
21448976170816,0.58785286,0,,0.0059486057,0.0071281514,-0.0035869308,9.7896757,-0.400507,1.387253,0.74836099,-0.118241,-0.643879,-0.106741,-0.269841,-1.4220078,-0.050584111
21448978194240,0.58987629,0,,0.0059486057,0.0071281514,-0.0035869308,9.7896757,-0.400507,1.387253,0.74836099,-0.118241,-0.643879,-0.106741,-0.269841,-1.4220078,-0.050584111
21448980396608,0.59207866,0,,0.0059486057,0.0071281514,-0.0035869308,9.7896757,-0.400507,1.387253,0.74836099,-0.118241,-0.643879,-0.106741,-0.269841,-1.4220078,-0.050584111
21448982192896,0.59387494,0,,0.0064181168,0.00033447489,-0.0057271935,9.8243122,-0.42233101,1.216921,0.74836498,-0.118219,-0.64387798,-0.10674,-0.26961071,-1.4220026,-0.050781871
21448984253664,0.59593571,0,,0.0064181168,0.00033447489,-0.0057271935,9.8243122,-0.42233101,1.216921,0.74836498,-0.118219,-0.64387798,-0.10674,-0.26961071,-1.4220026,-0.050781871
21448986259808,0.59794186,0,,0.0078598461,0.0025693689,-0.0078505958,9.9197464,-0.329483,1.084326,0.74835902,-0.118197,-0.64388901,-0.106744,-0.26937294,-1.4220308,-0.050992935
21448988259136,0.59994118,0,,0.0078598461,0.0025693689,-0.0078505958,9.9197464,-0.329483,1.084326,0.74835902,-0.118197,-0.64388901,-0.106744,-0.26937294,-1.4220308,-0.050992935
21448990200032,0.60188208,0,,0.0078598461,0.0025693689,-0.0078505958,9.9197464,-0.329483,1.084326,0.74835902,-0.118197,-0.64388901,-0.106744,-0.26937294,-1.4220308,-0.050992935
21448992206624,0.60388867,0,,0.0001738697,-0.0041879698,-0.0031504764,9.8468046,-0.29825801,0.926772,0.74834001,-0.11818,-0.64391297,-0.106749,-0.26919712,-1.4220951,-0.05115089
21448994200608,0.60588266,0,,0.0001738697,-0.0041879698,-0.0031504764,9.8468046,-0.29825801,0.926772,0.74834001,-0.11818,-0.64391297,-0.106749,-0.26919712,-1.4220951,-0.05115089
21448996263424,0.60794547,0,,0.0049289146,0.0049637515,-0.00065076344,9.7328176,-0.217879,0.75364101,0.74831897,-0.118171,-0.643938,-0.106753,-0.26912506,-1.4221626,-0.051214261
21448998255584,0.60993763,0,,0.0049289146,0.0049637515,-0.00065076344,9.7328176,-0.217879,0.75364101,0.74831897,-0.118171,-0.643938,-0.106753,-0.26912506,-1.4221626,-0.051214261
21449000355200,0.61203725,0,,0.0049289146,0.0049637515,-0.00065076344,9.7328176,-0.217879,0.75364101,0.74831897,-0.118171,-0.643938,-0.106753,-0.26912506,-1.4221626,-0.051214261
21449002212384,0.61389443,0,,0.008076267,0.0040100686,-0.0013103584,9.7799578,-0.239274,0.65272802,0.74830097,-0.118152,-0.64396298,-0.106749,-0.269004,-1.4222259,-0.051302906
21449004201632,0.61588368,0,,0.008076267,0.0040100686,-0.0013103584,9.7799578,-0.239274,0.65272802,0.74830097,-0.118152,-0.64396298,-0.106749,-0.269004,-1.4222259,-0.051302906
21449006183584,0.61786563,0,,0.0056259991,0.00071947709,-0.00093160437,9.7731371,-0.182769,0.55367798,0.74827397,-0.118133,-0.64399898,-0.106742,-0.26894445,-1.422315,-0.051324079
21449008184416,0.61986646,0,,0.0056259991,0.00071947709,-0.00093160437,9.7731371,-0.182769,0.55367798,0.74827397,-0.118133,-0.64399898,-0.106742,-0.26894445,-1.422315,-0.051324079
21449010206048,0.6218881,0,,0.0056259991,0.00071947709,-0.00093160437,9.7731371,-0.182769,0.55367798,0.74827397,-0.118133,-0.64399898,-0.106742,-0.26894445,-1.422315,-0.051324079
21449012176480,0.62385853,0,,0.0015575492,0.0010375982,-0.00037000979,9.8624763,-0.223727,0.48866901,0.74824202,-0.118122,-0.64403802,-0.106744,-0.26888366,-1.4224188,-0.051370413
21449014172288,0.62585434,0,,0.0015575492,0.0010375982,-0.00037000979,9.8624763,-0.223727,0.48866901,0.74824202,-0.118122,-0.64403802,-0.106744,-0.26888366,-1.4224188,-0.051370413
21449016207264,0.62788931,0,,0.0015575492,0.0010375982,-0.00037000979,9.8624763,-0.223727,0.48866901,0.74824202,-0.118122,-0.64403802,-0.106744,-0.26888366,-1.4224188,-0.051370413
21449018176512,0.62985856,0,,0.0015575492,0.0010375982,-0.00037000979,9.8624763,-0.223727,0.48866901,0.74824202,-0.118122,-0.64403802,-0.106744,-0.26888366,-1.4224188,-0.051370413
21449020368256,0.6320503,0,,0.0015575492,0.0010375982,-0.00037000979,9.8624763,-0.223727,0.48866901,0.74824202,-0.118122,-0.64403802,-0.106744,-0.26888366,-1.4224188,-0.051370413
21449022202688,0.63388474,0,,0.0013980087,0.006692657,-0.0017733942,9.8725338,-0.133495,0.35659501,0.748173,-0.118109,-0.64411801,-0.106759,-0.26876955,-1.4226315,-0.051484209
21449024300320,0.63598237,0,,0.0013980087,0.006692657,-0.0017733942,9.8725338,-0.133495,0.35659501,0.748173,-0.118109,-0.64411801,-0.106759,-0.26876955,-1.4226315,-0.051484209
21449026267456,0.6379495,0,,0.0075713602,0.00592644,0.0012136496,9.8825483,-0.130695,0.33646199,0.74814099,-0.118094,-0.64415801,-0.106758,-0.26869744,-1.4227366,-0.05153275
21449028224352,0.6399064,0,,0.0075713602,0.00592644,0.0012136496,9.8825483,-0.130695,0.33646199,0.74814099,-0.118094,-0.64415801,-0.106758,-0.26869744,-1.4227366,-0.05153275
21449030315072,0.64199712,0,,0.0075713602,0.00592644,0.0012136496,9.8825483,-0.130695,0.33646199,0.74814099,-0.118094,-0.64415801,-0.106758,-0.26869744,-1.4227366,-0.05153275
21449032173408,0.64385546,0,,0.003183271,0.0027591212,0.001290479,9.8932209,-0.148159,0.336263,0.748106,-0.118081,-0.64420199,-0.106753,-0.26869663,-1.4228495,-0.051505802
21449034198912,0.64588096,0,,0.003183271,0.0027591212,0.001290479,9.8932209,-0.148159,0.336263,0.748106,-0.118081,-0.64420199,-0.106753,-0.26869663,-1.4228495,-0.051505802
21449036244384,0.64792643,0,,-0.0010750356,-0.00019929915,0.002952364,9.9181662,-0.118748,0.39168301,0.74806398,-0.11808,-0.64425099,-0.106754,-0.26876509,-1.422977,-0.051435727
21449038234848,0.6499169,0,,-0.0010750356,-0.00019929915,0.002952364,9.9181662,-0.118748,0.39168301,0.74806398,-0.11808,-0.64425099,-0.106754,-0.26876509,-1.422977,-0.051435727
21449040360160,0.65204221,0,,-0.0010750356,-0.00019929915,0.002952364,9.9181662,-0.118748,0.39168301,0.74806398,-0.11808,-0.64425099,-0.106754,-0.26876509,-1.422977,-0.051435727
21449042203040,0.65388509,0,,-0.0013577265,0.00024719097,0.0051734,9.882391,-0.201094,0.411549,0.74802297,-0.118084,-0.64429802,-0.106752,-0.26892364,-1.423101,-0.051279346
21449044219200,0.65590125,0,,-0.0013577265,0.00024719097,0.0051734,9.882391,-0.201094,0.411549,0.74802297,-0.118084,-0.64429802,-0.106752,-0.26892364,-1.423101,-0.051279346
21449046200960,0.65788301,0,,-0.0038624834,-0.0015559087,0.0037199424,9.8568554,-0.182348,0.46302399,0.74798203,-0.118094,-0.64434397,-0.106751,-0.26912361,-1.4232218,-0.05109022
21449048225632,0.65990768,0,,-0.0038624834,-0.0015559087,0.0037199424,9.8568554,-0.182348,0.46302399,0.74798203,-0.118094,-0.64434397,-0.106751,-0.26912361,-1.4232218,-0.05109022
21449050239712,0.66192176,0,,-0.0038624834,-0.0015559087,0.0037199424,9.8568554,-0.182348,0.46302399,0.74798203,-0.118094,-0.64434397,-0.106751,-0.26912361,-1.4232218,-0.05109022
21449052261920,0.66394397,0,,0.0034773066,0.0023944346,0.0079906411,9.8084917,-0.167723,0.556027,0.747944,-0.118102,-0.64438802,-0.106742,-0.26937036,-1.4233336,-0.050841356
21449054209152,0.6658912,0,,0.0034773066,0.0023944346,0.0079906411,9.8084917,-0.167723,0.556027,0.747944,-0.118102,-0.64438802,-0.106742,-0.26937036,-1.4233336,-0.050841356
21449056184352,0.6678664,0,,0.0048337939,0.0023175179,0.0032540094,9.7335291,-0.25239,0.63228101,0.747917,-0.118098,-0.64442199,-0.10673,-0.2695003,-1.4234191,-0.050687799
21449058178624,0.66986067,0,,0.0048337939,0.0023175179,0.0032540094,9.7335291,-0.25239,0.63228101,0.747917,-0.118098,-0.64442199,-0.10673,-0.2695003,-1.4234191,-0.050687799
21449060398496,0.67208054,0,,0.0048337939,0.0023175179,0.0032540094,9.7335291,-0.25239,0.63228101,0.747917,-0.118098,-0.64442199,-0.10673,-0.2695003,-1.4234191,-0.050687799
21449062213280,0.67389533,0,,-0.0042520584,-0.0020963673,0.0028153558,9.7505503,-0.311023,0.75662899,0.74788702,-0.118101,-0.644458,-0.106727,-0.26962054,-1.4235103,-0.050566655
21449064290880,0.67597293,0,,-0.0042520584,-0.0020963673,0.0028153558,9.7505503,-0.311023,0.75662899,0.74788702,-0.118101,-0.644458,-0.106727,-0.26962054,-1.4235103,-0.050566655
21449066215552,0.6778976,0,,-0.0039802932,2.7680921e-05,0.0040377842,9.7983732,-0.372843,0.87595302,0.747859,-0.11812,-0.64448601,-0.106726,-0.26987965,-1.4235866,-0.050331751
21449068175552,0.6798576,0,,-0.0039802932,2.7680921e-05,0.0040377842,9.7983732,-0.372843,0.87595302,0.747859,-0.11812,-0.64448601,-0.106726,-0.26987965,-1.4235866,-0.050331751
21449070209856,0.6818919,0,,-0.0039802932,2.7680921e-05,0.0040377842,9.7983732,-0.372843,0.87595302,0.747859,-0.11812,-0.64448601,-0.106726,-0.26987965,-1.4235866,-0.050331751
21449072236256,0.6839183,0,,-0.0057364781,-0.0033414851,0.0049909782,9.7483778,-0.258082,1.062592,0.74783403,-0.118139,-0.644512,-0.106725,-0.27014831,-1.4236569,-0.050087723
21449074168576,0.68585062,0,,-0.0057364781,-0.0033414851,0.0049909782,9.7483778,-0.258082,1.062592,0.74783403,-0.118139,-0.644512,-0.106725,-0.27014831,-1.4236569,-0.050087723
21449076170432,0.68785248,0,,-0.0026475772,0.00016432274,0.0068868774,9.6235189,-0.37643799,1.163118,0.74781603,-0.118154,-0.64453,-0.106725,-0.27033625,-1.4237037,-0.049920064
21449078198144,0.68988019,0,,-0.0026475772,0.00016432274,0.0068868774,9.6235189,-0.37643799,1.163118,0.74781603,-0.118154,-0.64453,-0.106725,-0.27033625,-1.4237037,-0.049920064
21449080403200,0.69208525,0,,-0.0026475772,0.00016432274,0.0068868774,9.6235189,-0.37643799,1.163118,0.74781603,-0.118154,-0.64453,-0.106725,-0.27033625,-1.4237037,-0.049920064
21449082163264,0.69384531,0,,0.0032295572,0.0030972264,0.0015504807,9.6362953,-0.51736099,1.30844,0.74781197,-0.11816,-0.64453602,-0.106717,-0.27047781,-1.4237159,-0.04977637
21449084159328,0.69584138,0,,0.0032295572,0.0030972264,0.0015504807,9.6362953,-0.51736099,1.30844,0.74781197,-0.11816,-0.64453602,-0.106717,-0.27047781,-1.4237159,-0.04977637
21449086217440,0.69789949,0,,0.00035794959,0.003394648,0.0048390474,9.8655758,-0.42277601,1.543927,0.74781603,-0.118167,-0.64453101,-0.106706,-0.27064118,-1.4237017,-0.049607268
21449088162624,0.69984467,0,,0.00035794959,0.003394648,0.0048390474,9.8655758,-0.42277601,1.543927,0.74781603,-0.118167,-0.64453101,-0.106706,-0.27064118,-1.4237017,-0.049607268
21449090194560,0.70187661,0,,0.00035794959,0.003394648,0.0048390474,9.8655758,-0.42277601,1.543927,0.74781603,-0.118167,-0.64453101,-0.106706,-0.27064118,-1.4237017,-0.049607268
21449092192800,0.70387485,0,,0.0038963776,0.00083952083,0.0082280931,9.7839727,-0.52434701,1.662747,0.74782401,-0.118175,-0.64452201,-0.106691,-0.27083142,-1.423672,-0.049406831
21449094188288,0.70587034,0,,0.0038963776,0.00083952083,0.0082280931,9.7839727,-0.52434701,1.662747,0.74782401,-0.118175,-0.64452201,-0.106691,-0.27083142,-1.423672,-0.049406831
21449096494592,0.70817664,0,,-0.0030352148,-0.0042812926,0.0060220668,9.5906363,-0.56571299,1.802156,0.74783498,-0.118189,-0.64451098,-0.106674,-0.27110557,-1.4236375,-0.049128802
21449098291200,0.70997325,0,,-0.0030352148,-0.0042812926,0.0060220668,9.5906363,-0.56571299,1.802156,0.74783498,-0.118189,-0.64451098,-0.106674,-0.27110557,-1.4236375,-0.049128802
21449100379680,0.71206173,0,,-0.0030352148,-0.0042812926,0.0060220668,9.5906363,-0.56571299,1.802156,0.74783498,-0.118189,-0.64451098,-0.106674,-0.27110557,-1.4236375,-0.049128802
21449102215200,0.71389725,0,,-0.0030352148,-0.0042812926,0.0060220668,9.5906363,-0.56571299,1.802156,0.74783498,-0.118189,-0.64451098,-0.106674,-0.27110557,-1.4236375,-0.049128802
21449104195680,0.71587773,0,,-0.0030352148,-0.0042812926,0.0060220668,9.5906363,-0.56571299,1.802156,0.74783498,-0.118189,-0.64451098,-0.106674,-0.27110557,-1.4236375,-0.049128802
21449106220288,0.71790234,0,,0.0011572929,0.00078415901,0.0034942364,9.6607981,-0.50287199,2.0737071,0.74786103,-0.118214,-0.64447701,-0.106662,-0.27141002,-1.4235456,-0.048845204
21449108186176,0.71986822,0,,0.0011572929,0.00078415901,0.0034942364,9.6607981,-0.50287199,2.0737071,0.74786103,-0.118214,-0.64447701,-0.106662,-0.27141002,-1.4235456,-0.048845204
21449110180992,0.72186304,0,,0.0011572929,0.00078415901,0.0034942364,9.6607981,-0.50287199,2.0737071,0.74786103,-0.118214,-0.64447701,-0.106662,-0.27141002,-1.4235456,-0.048845204
21449112183744,0.72386579,0,,-0.0019948066,0.00019336503,0.0079329405,9.5341053,-0.63454199,2.121105,0.74788898,-0.118224,-0.644445,-0.106652,-0.27153672,-1.42346,-0.04871872
21449114178464,0.72586051,0,,-0.0019948066,0.00019336503,0.0079329405,9.5341053,-0.63454199,2.121105,0.74788898,-0.118224,-0.644445,-0.106652,-0.27153672,-1.42346,-0.04871872
21449116183168,0.72786522,0,,-0.0046674119,0.0023998975,0.0051312503,9.4704676,-0.61624998,2.215363,0.74791998,-0.118247,-0.64440602,-0.106641,-0.27179029,-1.4233548,-0.048484862
21449118176448,0.7298585,0,,-0.0046674119,0.0023998975,0.0051312503,9.4704676,-0.61624998,2.215363,0.74791998,-0.118247,-0.64440602,-0.106641,-0.27179029,-1.4233548,-0.048484862
21449120378432,0.73206048,0,,-0.0046674119,0.0023998975,0.0051312503,9.4704676,-0.61624998,2.215363,0.74791998,-0.118247,-0.64440602,-0.106641,-0.27179029,-1.4233548,-0.048484862
21449122205472,0.73388752,0,,0.0011138168,-0.00060274943,0.0053424353,9.3748627,-0.54610699,2.2683611,0.74795401,-0.118264,-0.644364,-0.106635,-0.27193826,-1.4232442,-0.048353822
21449124175136,0.73585718,0,,0.0011138168,-0.00060274943,0.0053424353,9.3748627,-0.54610699,2.2683611,0.74795401,-0.118264,-0.644364,-0.106635,-0.27193826,-1.4232442,-0.048353822
21449126173344,0.73785539,0,,-0.0022813897,-0.0046818284,0.008226051,9.4585896,-0.61177999,2.3013151,0.74798697,-0.118274,-0.64432597,-0.106622,-0.27207996,-1.4231399,-0.048209607
21449128202656,0.7398847,0,,-0.0022813897,-0.0046818284,0.008226051,9.4585896,-0.61177999,2.3013151,0.74798697,-0.118274,-0.64432597,-0.106622,-0.27207996,-1.4231399,-0.048209607
21449130307136,0.74198918,0,,-0.0022813897,-0.0046818284,0.008226051,9.4585896,-0.61177999,2.3013151,0.74798697,-0.118274,-0.64432597,-0.106622,-0.27207996,-1.4231399,-0.048209607
21449132181216,0.74386326,0,,-0.0076960118,-0.0022055203,0.0077028184,9.5388813,-0.57101798,2.3631151,0.74801701,-0.118303,-0.644288,-0.106613,-0.27238707,-1.4230383,-0.047931819
21449134213664,0.74589571,0,,-0.0076960118,-0.0022055203,0.0077028184,9.5388813,-0.57101798,2.3631151,0.74801701,-0.118303,-0.644288,-0.106613,-0.27238707,-1.4230383,-0.047931819
21449136202208,0.74788426,0,,-0.0081256597,-0.0021578029,0.0077569415,9.5392303,-0.636078,2.341495,0.74805301,-0.118329,-0.64424098,-0.106613,-0.27256452,-1.4229178,-0.047793451
21449138268160,0.74995021,0,,-0.0081256597,-0.0021578029,0.0077569415,9.5392303,-0.636078,2.341495,0.74805301,-0.118329,-0.64424098,-0.106613,-0.27256452,-1.4229178,-0.047793451
21449140385696,0.75206774,0,,-0.0081256597,-0.0021578029,0.0077569415,9.5392303,-0.636078,2.341495,0.74805301,-0.118329,-0.64424098,-0.106613,-0.27256452,-1.4229178,-0.047793451
21449142187744,0.75386979,0,,-0.01013483,-0.0041422945,0.0070023483,9.6248589,-0.57353598,2.302,0.74808401,-0.118365,-0.64419901,-0.106612,-0.2728656,-1.4228101,-0.04754338
21449144164928,0.75584698,0,,-0.01013483,-0.0041422945,0.0070023483,9.6248589,-0.57353598,2.302,0.74808401,-0.118365,-0.64419901,-0.106612,-0.2728656,-1.4228101,-0.04754338
21449146180512,0.75786256,0,,-0.0054446071,-0.0026361453,0.0063005164,9.7289572,-0.48357499,2.3100951,0.74811202,-0.118392,-0.64416099,-0.106613,-0.2730575,-1.4227107,-0.047391884
21449148201536,0.75988358,0,,-0.0054446071,-0.0026361453,0.0063005164,9.7289572,-0.48357499,2.3100951,0.74811202,-0.118392,-0.64416099,-0.106613,-0.2730575,-1.4227107,-0.047391884
21449150189792,0.76187184,0,,-0.0054446071,-0.0026361453,0.0063005164,9.7289572,-0.48357499,2.3100951,0.74811202,-0.118392,-0.64416099,-0.106613,-0.2730575,-1.4227107,-0.047391884
21449152161472,0.76384352,0,,-0.002916288,0.0015501665,0.011312124,9.4959745,-0.42096901,2.177279,0.748146,-0.118411,-0.64411998,-0.106607,-0.2732238,-1.4226021,-0.047247478
21449154186080,0.76586813,0,,-0.002916288,0.0015501665,0.011312124,9.4959745,-0.42096901,2.177279,0.748146,-0.118411,-0.64411998,-0.106607,-0.2732238,-1.4226021,-0.047247478
21449156187168,0.76786922,0,,-0.0049469091,0.0027977628,0.010587463,9.496316,-0.55359697,2.076082,0.748182,-0.118432,-0.64407599,-0.106596,-0.27344639,-1.4224854,-0.047039747
21449158205312,0.76988736,0,,-0.0049469091,0.0027977628,0.010587463,9.496316,-0.55359697,2.076082,0.748182,-0.118432,-0.64407599,-0.106596,-0.27344639,-1.4224854,-0.047039747
21449160360160,0.77204221,0,,-0.0049469091,0.0027977628,0.010587463,9.496316,-0.55359697,2.076082,0.748182,-0.118432,-0.64407599,-0.106596,-0.27344639,-1.4224854,-0.047039747
21449162217120,0.77389917,0,,-0.012052144,0.0016018283,0.0099340299,9.6647377,-0.429205,1.989714,0.74821001,-0.118466,-0.64403701,-0.106593,-0.27375207,-1.4223826,-0.046778662
21449164355488,0.77603754,0,,-0.012052144,0.0016018283,0.0099340299,9.6647377,-0.429205,1.989714,0.74821001,-0.118466,-0.64403701,-0.106593,-0.27375207,-1.4223826,-0.046778662
21449166195808,0.77787786,0,,-0.0062374052,0.0058821957,0.01131689,9.7347403,-0.33126599,1.892381,0.74823898,-0.118498,-0.64399803,-0.106593,-0.27400262,-1.4222826,-0.04657535
21449168258656,0.7799407,0,,-0.0062374052,0.0058821957,0.01131689,9.7347403,-0.33126599,1.892381,0.74823898,-0.118498,-0.64399803,-0.106593,-0.27400262,-1.4222826,-0.04657535
21449170183424,0.78186547,0,,-0.0062374052,0.0058821957,0.01131689,9.7347403,-0.33126599,1.892381,0.74823898,-0.118498,-0.64399803,-0.106593,-0.27400262,-1.4222826,-0.04657535
21449172184736,0.78386678,0,,-0.0016192467,0.004017521,0.0088690474,9.7570295,-0.50775498,1.7587839,0.74826598,-0.118514,-0.64396399,-0.106589,-0.2741353,-1.4221937,-0.046462112
21449174165984,0.78584803,0,,-0.0016192467,0.004017521,0.0088690474,9.7570295,-0.50775498,1.7587839,0.74826598,-0.118514,-0.64396399,-0.106589,-0.2741353,-1.4221937,-0.046462112
21449176192768,0.78787482,0,,-0.00029988247,0.00061416389,0.00198793,9.7922192,-0.40682101,1.65495,0.74828297,-0.118526,-0.64394403,-0.106579,-0.27429665,-1.4221371,-0.046304091
21449178198752,0.7898808,0,,-0.00029988247,0.00061416389,0.00198793,9.7922192,-0.40682101,1.65495,0.74828297,-0.118526,-0.64394403,-0.106579,-0.27429665,-1.4221371,-0.046304091
21449180333440,0.79201549,0,,-0.00029988247,0.00061416389,0.00198793,9.7922192,-0.40682101,1.65495,0.74828297,-0.118526,-0.64394403,-0.106579,-0.27429665,-1.4221371,-0.046304091
21449182167584,0.79384963,0,,0.0058260659,0.0039659639,-0.0016178329,9.8137789,-0.34839499,1.563724,0.74829602,-0.11852,-0.64393097,-0.106578,-0.27422277,-1.4221019,-0.046367395
21449184212640,0.79589469,0,,0.0058260659,0.0039659639,-0.0016178329,9.8137789,-0.34839499,1.563724,0.74829602,-0.11852,-0.64393097,-0.106578,-0.27422277,-1.4221019,-0.046367395
21449186273440,0.79795549,0,,0.0059245373,0.0064270878,-0.0056461574,9.8522539,-0.37294701,1.438952,0.74830902,-0.118497,-0.64391798,-0.106581,-0.27393766,-1.4220697,-0.046625771
21449188198272,0.79988032,0,,0.0059245373,0.0064270878,-0.0056461574,9.8522539,-0.37294701,1.438952,0.74830902,-0.118497,-0.64391798,-0.106581,-0.27393766,-1.4220697,-0.046625771
21449190224256,0.8019063,0,,0.0059245373,0.0064270878,-0.0056461574,9.8522539,-0.37294701,1.438952,0.74830902,-0.118497,-0.64391798,-0.106581,-0.27393766,-1.4220697,-0.046625771
21449192200640,0.80388269,0,,-0.00017760471,0.0012823457,-0.0037513932,9.8787041,-0.29496899,1.340096,0.74831402,-0.118482,-0.64391398,-0.106588,-0.2737179,-1.4220609,-0.046832978
21449194170432,0.80585248,0,,-0.00017760471,0.0012823457,-0.0037513932,9.8787041,-0.29496899,1.340096,0.74831402,-0.118482,-0.64391398,-0.106588,-0.2737179,-1.4220609,-0.046832978
21449196262880,0.80794493,0,,-0.0014199476,0.0013076356,-0.0082135196,9.9176607,-0.33766299,1.277633,0.74830902,-0.118469,-0.64392,-0.106606,-0.27342965,-1.422081,-0.047128164
21449198213440,0.80989549,0,,-0.0014199476,0.0013076356,-0.0082135196,9.9176607,-0.33766299,1.277633,0.74830902,-0.118469,-0.64392,-0.106606,-0.27342965,-1.422081,-0.047128164
21449200366048,0.8120481,0,,-0.0014199476,0.0013076356,-0.0082135196,9.9176607,-0.33766299,1.277633,0.74830902,-0.118469,-0.64392,-0.106606,-0.27342965,-1.422081,-0.047128164
21449202243392,0.81392544,0,,0.010496584,0.0029899234,-0.0081925233,9.9029837,-0.36038101,1.188388,0.748303,-0.118447,-0.643929,-0.106619,-0.27311649,-1.422108,-0.04742824
21449204232064,0.81591411,0,,0.010496584,0.0029899234,-0.0081925233,9.9029837,-0.36038101,1.188388,0.748303,-0.118447,-0.643929,-0.106619,-0.27311649,-1.422108,-0.04742824
21449206193440,0.81787549,0,,0.0098257672,0.0048983714,-0.013428092,9.8284931,-0.29010001,1.105739,0.74830002,-0.118407,-0.64393902,-0.106623,-0.27268271,-1.4221353,-0.04781005
21449208157856,0.8198399,0,,0.0098257672,0.0048983714,-0.013428092,9.8284931,-0.29010001,1.105739,0.74830002,-0.118407,-0.64393902,-0.106623,-0.27268271,-1.4221353,-0.04781005
21449210151872,0.82183392,0,,0.0098257672,0.0048983714,-0.013428092,9.8284931,-0.29010001,1.105739,0.74830002,-0.118407,-0.64393902,-0.106623,-0.27268271,-1.4221353,-0.04781005
21449212184288,0.82386634,0,,0.011279469,0.0048548428,-0.012317957,9.8089275,-0.28869501,1.063102,0.74829197,-0.118362,-0.64395398,-0.106637,-0.27212608,-1.4221748,-0.048321431
21449214182432,0.82586448,0,,0.011279469,0.0048548428,-0.012317957,9.8089275,-0.28869501,1.063102,0.74829197,-0.118362,-0.64395398,-0.106637,-0.27212608,-1.4221748,-0.048321431
21449216181664,0.82786371,0,,0.010584252,0.0081771295,-0.011168118,9.6718073,-0.35034099,0.94990498,0.74828601,-0.118321,-0.64396697,-0.106647,-0.2716402,-1.422209,-0.048763104
21449218180512,0.82986256,0,,0.010584252,0.0081771295,-0.011168118,9.6718073,-0.35034099,0.94990498,0.74828601,-0.118321,-0.64396697,-0.106647,-0.2716402,-1.422209,-0.048763104
21449220410720,0.83209277,0,,0.010584252,0.0081771295,-0.011168118,9.6718073,-0.35034099,0.94990498,0.74828601,-0.118321,-0.64396697,-0.106647,-0.2716402,-1.422209,-0.048763104
21449222187040,0.83386909,0,,0.010402354,0.010580517,-0.011075947,9.678153,-0.35600901,0.90725601,0.74828297,-0.118281,-0.64397699,-0.106655,-0.27118537,-1.4222352,-0.049170796
21449224187200,0.83586925,0,,0.010402354,0.010580517,-0.011075947,9.678153,-0.35600901,0.90725601,0.74828297,-0.118281,-0.64397699,-0.106655,-0.27118537,-1.4222352,-0.049170796
21449226276640,0.83795869,0,,0.009986774,0.0081312794,-0.0071580491,9.5963058,-0.27976099,0.864923,0.74827898,-0.118246,-0.643987,-0.106659,-0.27080638,-1.4222606,-0.049505006
21449228285664,0.83996771,0,,0.009986774,0.0081312794,-0.0071580491,9.5963058,-0.27976099,0.864923,0.74827898,-0.118246,-0.643987,-0.106659,-0.27080638,-1.4222606,-0.049505006
21449230308768,0.84199082,0,,0.009986774,0.0081312794,-0.0071580491,9.5963058,-0.27976099,0.864923,0.74827898,-0.118246,-0.643987,-0.106659,-0.27080638,-1.4222606,-0.049505006
21449232271136,0.84395318,0,,7.9604468e-05,-0.0019326903,0.0043551724,9.4136,-0.342482,0.769925,0.748263,-0.118234,-0.64400798,-0.106657,-0.27073311,-1.4223156,-0.049558694
21449234244096,0.84592614,0,,7.9604468e-05,-0.0019326903,0.0043551724,9.4136,-0.342482,0.769925,0.748263,-0.118234,-0.64400798,-0.106657,-0.27073311,-1.4223156,-0.049558694
21449236178816,0.84786086,0,,-0.0026948407,-0.0042255293,0.0099461077,9.3993816,-0.328049,0.73229098,0.748236,-0.118248,-0.64403898,-0.106645,-0.27104359,-1.4223923,-0.049249859
21449238232320,0.84991437,0,,-0.0026948407,-0.0042255293,0.0099461077,9.3993816,-0.328049,0.73229098,0.748236,-0.118248,-0.64403898,-0.106645,-0.27104359,-1.4223923,-0.049249859
21449240357216,0.85203926,0,,-0.0026948407,-0.0042255293,0.0099461077,9.3993816,-0.328049,0.73229098,0.748236,-0.118248,-0.64403898,-0.106645,-0.27104359,-1.4223923,-0.049249859
21449242164416,0.85384646,0,,-0.0013624563,-0.008040784,0.022010225,9.3598127,-0.231453,0.68764699,0.74820298,-0.118283,-0.64407498,-0.106616,-0.27173428,-1.4224818,-0.048566508
21449244164480,0.85584653,0,,-0.0013624563,-0.008040784,0.022010225,9.3598127,-0.231453,0.68764699,0.74820298,-0.118283,-0.64407498,-0.106616,-0.27173428,-1.4224818,-0.048566508
21449246246944,0.85792899,0,,-0.0069922428,-0.00016758651,0.028767878,9.5784121,-0.38480601,0.65187198,0.74817401,-0.11833,-0.64410698,-0.106576,-0.27261846,-1.4225516,-0.047691364
21449248201472,0.85988352,0,,-0.0069922428,-0.00016758651,0.028767878,9.5784121,-0.38480601,0.65187198,0.74817401,-0.11833,-0.64410698,-0.106576,-0.27261846,-1.4225516,-0.047691364
21449250169888,0.86185194,0,,-0.0069922428,-0.00016758651,0.028767878,9.5784121,-0.38480601,0.65187198,0.74817401,-0.11833,-0.64410698,-0.106576,-0.27261846,-1.4225516,-0.047691364
21449252172768,0.86385482,0,,-0.011936219,-0.0011482696,0.026600005,9.8159304,-0.487591,0.70871001,0.74814999,-0.118397,-0.64412898,-0.106538,-0.27369946,-1.4226013,-0.046651483
21449254194976,0.86587702,0,,-0.011936219,-0.0011482696,0.026600005,9.8159304,-0.487591,0.70871001,0.74814999,-0.118397,-0.64412898,-0.106538,-0.27369946,-1.4226013,-0.046651483
21449256182240,0.86786429,0,,-0.012170321,0.001975067,0.021722978,10.126036,-0.34899199,0.74709797,0.74812299,-0.11847,-0.64415199,-0.106504,-0.2747841,-1.4226521,-0.045622821
21449258150720,0.86983277,0,,-0.012170321,0.001975067,0.021722978,10.126036,-0.34899199,0.74709797,0.74812299,-0.11847,-0.64415199,-0.106504,-0.2747841,-1.4226521,-0.045622821
21449260514048,0.8721961,0,,-0.012170321,0.001975067,0.021722978,10.126036,-0.34899199,0.74709797,0.74812299,-0.11847,-0.64415199,-0.106504,-0.2747841,-1.4226521,-0.045622821
21449262207744,0.87388979,0,,-0.010994475,0.0036383483,0.017588207,10.200521,-0.34757301,0.764153,0.74810302,-0.118523,-0.64416897,-0.106489,-0.27549832,-1.4226957,-0.044961408
21449264267648,0.8759497,0,,-0.010994475,0.0036383483,0.017588207,10.200521,-0.34757301,0.764153,0.74810302,-0.118523,-0.64416897,-0.106489,-0.27549832,-1.4226957,-0.044961408
21449266214976,0.87789702,0,,-0.011159355,-0.00025621433,0.0060918796,10.106813,-0.40777999,0.79020202,0.74807602,-0.118565,-0.64419299,-0.106483,-0.2760366,-1.4227587,-0.044474603
21449268191680,0.87987373,0,,-0.011159355,-0.00025621433,0.0060918796,10.106813,-0.40777999,0.79020202,0.74807602,-0.118565,-0.64419299,-0.106483,-0.2760366,-1.4227587,-0.044474603
21449270189280,0.88187133,0,,-0.011159355,-0.00025621433,0.0060918796,10.106813,-0.40777999,0.79020202,0.74807602,-0.118565,-0.64419299,-0.106483,-0.2760366,-1.4227587,-0.044474603
21449272184800,0.88386685,0,,-0.0047419373,-0.0025600489,-0.0024509659,10.238047,-0.36750001,0.91108698,0.74804503,-0.118586,-0.64422399,-0.10649,-0.27626198,-1.4228436,-0.044288394
21449274180448,0.8858625,0,,-0.0047419373,-0.0025600489,-0.0024509659,10.238047,-0.36750001,0.91108698,0.74804503,-0.118586,-0.64422399,-0.10649,-0.27626198,-1.4228436,-0.044288394
21449276185024,0.88786707,0,,0.0014970911,-0.000249617,-0.003042074,10.257937,-0.31042001,1.035816,0.74801803,-0.118586,-0.64425397,-0.106497,-0.27625877,-1.4229254,-0.04430131
21449278176352,0.8898584,0,,0.0014970911,-0.000249617,-0.003042074,10.257937,-0.31042001,1.035816,0.74801803,-0.118586,-0.64425397,-0.106497,-0.27625877,-1.4229254,-0.04430131
21449280337248,0.8920193,0,,0.0014970911,-0.000249617,-0.003042074,10.257937,-0.31042001,1.035816,0.74801803,-0.118586,-0.64425397,-0.106497,-0.27625877,-1.4229254,-0.04430131
21449282173536,0.89385558,0,,0.0034535527,0.0018940836,-0.0066946294,10.053246,-0.400466,1.0979919,0.74799901,-0.118575,-0.64427698,-0.106504,-0.27612976,-1.4229861,-0.044423986
21449284179680,0.89586173,0,,0.0034535527,0.0018940836,-0.0066946294,10.053246,-0.400466,1.0979919,0.74799901,-0.118575,-0.64427698,-0.106504,-0.27612976,-1.4229861,-0.044423986
21449286170336,0.89785238,0,,0.0057490449,-0.004978866,-0.010683946,9.7624226,-0.434416,1.173775,0.74798203,-0.118554,-0.64429897,-0.106511,-0.27590024,-1.4230464,-0.044632204
21449288175648,0.8998577,0,,0.0057490449,-0.004978866,-0.010683946,9.7624226,-0.434416,1.173775,0.74798203,-0.118554,-0.64429897,-0.106511,-0.27590024,-1.4230464,-0.044632204
21449290203520,0.90188557,0,,0.0057490449,-0.004978866,-0.010683946,9.7624226,-0.434416,1.173775,0.74798203,-0.118554,-0.64429897,-0.106511,-0.27590024,-1.4230464,-0.044632204
21449292169408,0.90385146,0,,0.0033586942,-0.007071114,-0.011315999,9.5004377,-0.29749998,1.2749979,0.747958,-0.118532,-0.64432901,-0.106525,-0.27561335,-1.4231272,-0.044907096
21449294171392,0.90585344,0,,0.0033586942,-0.007071114,-0.011315999,9.5004377,-0.29749998,1.2749979,0.747958,-0.118532,-0.64432901,-0.106525,-0.27561335,-1.4231272,-0.044907096
21449296631968,0.90831402,0,,0.0054864427,-0.0021038199,0.0010184345,9.1016846,-0.26481,1.316219,0.74794698,-0.118511,-0.64434499,-0.106531,-0.27537362,-1.4231706,-0.045124805
21449298309600,0.90999165,0,,0.0054864427,-0.0021038199,0.0010184345,9.1016846,-0.26481,1.316219,0.74794698,-0.118511,-0.64434499,-0.106531,-0.27537362,-1.4231706,-0.045124805
21449300538528,0.91222058,0,,0.0054864427,-0.0021038199,0.0010184345,9.1016846,-0.26481,1.316219,0.74794698,-0.118511,-0.64434499,-0.106531,-0.27537362,-1.4231706,-0.045124805
21449302229312,0.91391136,0,,0.0025013012,0.0024462011,0.0092746624,9.1030731,-0.45655599,1.38139,0.74794698,-0.118509,-0.64434701,-0.106519,-0.2754557,-1.423171,-0.045021516
21449304213184,0.91589523,0,,0.0025013012,0.0024462011,0.0092746624,9.1030731,-0.45655599,1.38139,0.74794698,-0.118509,-0.64434701,-0.106519,-0.2754557,-1.423171,-0.045021516
21449306178464,0.91786051,0,,0.0025520553,0.00570405,0.012872484,9.3208065,-0.44850701,1.5107,0.74796098,-0.118522,-0.64433199,-0.106496,-0.27576213,-1.4231256,-0.044702212
21449308153280,0.91983533,0,,0.0025520553,0.00570405,0.012872484,9.3208065,-0.44850701,1.5107,0.74796098,-0.118522,-0.64433199,-0.106496,-0.27576213,-1.4231256,-0.044702212
21449310187840,0.92186989,0,,0.0025520553,0.00570405,0.012872484,9.3208065,-0.44850701,1.5107,0.74796098,-0.118522,-0.64433199,-0.106496,-0.27576213,-1.4231256,-0.044702212
21449312159680,0.92384173,0,,0.0031773194,0.0034488927,0.014364094,9.54638,-0.45305401,1.655821,0.74797702,-0.11854,-0.644315,-0.106467,-0.27616709,-1.4230698,-0.044282023
21449314151456,0.9258335,0,,0.0031773194,0.0034488927,0.014364094,9.54638,-0.45305401,1.655821,0.74797702,-0.11854,-0.644315,-0.106467,-0.27616709,-1.4230698,-0.044282023
21449316215104,0.92789715,0,,0.0036915634,-0.00042376595,0.007901315,9.7034922,-0.499957,1.7723989,0.74799401,-0.118552,-0.644297,-0.10644,-0.27648364,-1.4230153,-0.043944651
21449318194016,0.92987606,0,,0.0036915634,-0.00042376595,0.007901315,9.7034922,-0.499957,1.7723989,0.74799401,-0.118552,-0.644297,-0.10644,-0.27648364,-1.4230153,-0.043944651
21449320344960,0.93202701,0,,0.0036915634,-0.00042376595,0.007901315,9.7034922,-0.499957,1.7723989,0.74799401,-0.118552,-0.644297,-0.10644,-0.27648364,-1.4230153,-0.043944651
21449322152032,0.93383408,0,,0.0036915634,-0.00042376595,0.007901315,9.7034922,-0.499957,1.7723989,0.74799401,-0.118552,-0.644297,-0.10644,-0.27648364,-1.4230153,-0.043944651
21449324180512,0.93586256,0,,0.0036915634,-0.00042376595,0.007901315,9.7034922,-0.499957,1.7723989,0.74799401,-0.118552,-0.644297,-0.10644,-0.27648364,-1.4230153,-0.043944651
21449326178336,0.93786038,0,,0.0031337037,6.3058747e-05,-0.0070444455,10.285308,-0.491676,2.0288529,0.74802601,-0.118553,-0.64426202,-0.106427,-0.27653681,-1.422919,-0.043875167
21449328188512,0.93987056,0,,0.0031337037,6.3058747e-05,-0.0070444455,10.285308,-0.491676,2.0288529,0.74802601,-0.118553,-0.64426202,-0.106427,-0.27653681,-1.422919,-0.043875167
21449330334528,0.94201658,0,,0.0031337037,6.3058747e-05,-0.0070444455,10.285308,-0.491676,2.0288529,0.74802601,-0.118553,-0.64426202,-0.106427,-0.27653681,-1.422919,-0.043875167
21449332247328,0.94392938,0,,4.8083821e-05,-0.00099874718,-0.011062856,10.242279,-0.46634299,2.1121271,0.74804401,-0.118533,-0.644243,-0.106444,-0.27614442,-1.4228744,-0.044264063
21449334260928,0.94594298,0,,4.8083821e-05,-0.00099874718,-0.011062856,10.242279,-0.46634299,2.1121271,0.74804401,-0.118533,-0.644243,-0.106444,-0.27614442,-1.4228744,-0.044264063
21449336188064,0.94787011,0,,-0.0012655208,0.00077602577,-0.010057198,9.9222689,-0.42395899,2.1493781,0.74806303,-0.118516,-0.64421999,-0.10647,-0.27568869,-1.42282,-0.04473298
21449338339936,0.95002198,0,,-0.0012655208,0.00077602577,-0.010057198,9.9222689,-0.42395899,2.1493781,0.74806303,-0.118516,-0.64421999,-0.10647,-0.27568869,-1.42282,-0.04473298
21449340340576,0.95202262,0,,-0.0012655208,0.00077602577,-0.010057198,9.9222689,-0.42395899,2.1493781,0.74806303,-0.118516,-0.64421999,-0.10647,-0.27568869,-1.42282,-0.04473298
21449342178560,0.95386061,0,,-0.0017323963,0.00029305822,-0.010473913,9.6356297,-0.500462,2.1321819,0.748088,-0.118498,-0.644189,-0.106497,-0.27521343,-1.4227485,-0.045221428
21449344175584,0.95585763,0,,-0.0017323963,0.00029305822,-0.010473913,9.6356297,-0.500462,2.1321819,0.748088,-0.118498,-0.644189,-0.106497,-0.27521343,-1.4227485,-0.045221428
21449346238496,0.95792054,0,,0.0012382937,0.00039357174,-0.014142071,9.5228472,-0.48514,2.123795,0.74811202,-0.118479,-0.64415997,-0.106522,-0.2747453,-1.4226813,-0.045699316
21449348199296,0.95988134,0,,0.0012382937,0.00039357174,-0.014142071,9.5228472,-0.48514,2.123795,0.74811202,-0.118479,-0.64415997,-0.106522,-0.2747453,-1.4226813,-0.045699316
21449350161920,0.96184397,0,,0.0012382937,0.00039357174,-0.014142071,9.5228472,-0.48514,2.123795,0.74811202,-0.118479,-0.64415997,-0.106522,-0.2747453,-1.4226813,-0.045699316
21449352200768,0.96388282,0,,0.0074128324,0.0002703515,-0.01391846,9.3444672,-0.37017798,2.12114,0.74813801,-0.118448,-0.64413202,-0.106545,-0.27416105,-1.4226143,-0.046273165
21449354159488,0.96584154,0,,0.0074128324,0.0002703515,-0.01391846,9.3444672,-0.37017798,2.12114,0.74813801,-0.118448,-0.64413202,-0.106545,-0.27416105,-1.4226143,-0.046273165
21449356159872,0.96784192,0,,0.014414116,0.0045130375,-0.010508558,9.1380301,-0.480607,2.078459,0.74817002,-0.118399,-0.64410198,-0.106559,-0.27347813,-1.422537,-0.046905566
21449358199104,0.96988115,0,,0.014414116,0.0045130375,-0.010508558,9.1380301,-0.480607,2.078459,0.74817002,-0.118399,-0.64410198,-0.106559,-0.27347813,-1.422537,-0.046905566
21449360360864,0.97204291,0,,0.014414116,0.0045130375,-0.010508558,9.1380301,-0.480607,2.078459,0.74817002,-0.118399,-0.64410198,-0.106559,-0.27347813,-1.422537,-0.046905566
21449362156928,0.97383898,0,,0.018174219,0.011136649,-0.012565934,9.0967684,-0.52678102,2.0477829,0.74821299,-0.118349,-0.64406097,-0.106559,-0.272884,-1.4224282,-0.047430737
21449364204224,0.97588627,0,,0.018174219,0.011136649,-0.012565934,9.0967684,-0.52678102,2.0477829,0.74821299,-0.118349,-0.64406097,-0.106559,-0.272884,-1.4224282,-0.047430737
21449366196256,0.9778783,0,,0.019441363,0.010049065,-0.013166816,9.2900295,-0.49893498,1.996931,0.74826002,-0.11829,-0.64401799,-0.106557,-0.27219677,-1.422309,-0.048031916
21449368158208,0.97984026,0,,0.019441363,0.010049065,-0.013166816,9.2900295,-0.49893498,1.996931,0.74826002,-0.11829,-0.64401799,-0.106557,-0.27219677,-1.422309,-0.048031916
21449370151968,0.98183402,0,,0.019441363,0.010049065,-0.013166816,9.2900295,-0.49893498,1.996931,0.74826002,-0.11829,-0.64401799,-0.106557,-0.27219677,-1.422309,-0.048031916
21449372189376,0.98387142,0,,0.017695212,0.0041969583,-0.0099168733,9.6663504,-0.47599,1.9730999,0.74829799,-0.118234,-0.64398497,-0.106552,-0.27158988,-1.4222175,-0.048550904
21449374183072,0.98586512,0,,0.017695212,0.0041969583,-0.0099168733,9.6663504,-0.47599,1.9730999,0.74829799,-0.118234,-0.64398497,-0.106552,-0.27158988,-1.4222175,-0.048550904
21449376148608,0.98783066,0,,0.01554926,0.00018596483,-0.0042090361,9.9338846,-0.50675398,1.9214669,0.748326,-0.118191,-0.64396203,-0.106539,-0.2712195,-1.4221499,-0.04884227
21449378153984,0.98983603,0,,0.01554926,0.00018596483,-0.0042090361,9.9338846,-0.50675398,1.9214669,0.748326,-0.118191,-0.64396203,-0.106539,-0.2712195,-1.4221499,-0.04884227
21449380355840,0.99203789,0,,0.01554926,0.00018596483,-0.0042090361,9.9338846,-0.50675398,1.9214669,0.748326,-0.118191,-0.64396203,-0.106539,-0.2712195,-1.4221499,-0.04884227
21449382177632,0.99385968,0,,0.010778176,-0.0018189124,-0.010124201,10.079944,-0.63458699,1.8258359,0.74834502,-0.118156,-0.64394701,-0.106531,-0.27089004,-1.4221063,-0.04911058
21449384177088,0.99585914,0,,0.010778176,-0.0018189124,-0.010124201,10.079944,-0.63458699,1.8258359,0.74834502,-0.118156,-0.64394701,-0.106531,-0.27089004,-1.4221063,-0.04911058
21449386171584,0.99785363,0,,0.0086285587,-0.0023000471,-0.013994084,10.138563,-0.55007499,1.750438,0.74835497,-0.118125,-0.64394099,-0.106535,-0.27052858,-1.4220899,-0.049434216
21449388330528,1.0000126,0,,0.0086285587,-0.0023000471,-0.013994084,10.138563,-0.55007499,1.750438,0.74835497,-0.118125,-0.64394099,-0.106535,-0.27052858,-1.4220899,-0.049434216
21449390236960,1.001919,0,,0.0086285587,-0.0023000471,-0.013994084,10.138563,-0.55007499,1.750438,0.74835497,-0.118125,-0.64394099,-0.106535,-0.27052858,-1.4220899,-0.049434216
21449392203232,1.0038853,0,,0.0078414152,-0.0035342743,-0.012747484,10.165018,-0.51590097,1.657734,0.74836099,-0.118093,-0.64393902,-0.106546,-0.27009831,-1.4220854,-0.049832134
21449394198400,1.0058804,0,,0.0078414152,-0.0035342743,-0.012747484,10.165018,-0.51590097,1.657734,0.74836099,-0.118093,-0.64393902,-0.106546,-0.27009831,-1.4220854,-0.049832134
21449396285344,1.0079674,0,,0.011153875,0.0014253406,-0.015870715,9.8461256,-0.43086201,1.557826,0.74836498,-0.118056,-0.64393902,-0.106555,-0.26964188,-1.4220866,-0.050248952
21449398190496,1.0098725,0,,0.011153875,0.0014253406,-0.015870715,9.8461256,-0.43086201,1.557826,0.74836498,-0.118056,-0.64393902,-0.106555,-0.26964188,-1.4220866,-0.050248952
21449400369696,1.0120517,0,,0.011153875,0.0014253406,-0.015870715,9.8461256,-0.43086201,1.557826,0.74836498,-0.118056,-0.64393902,-0.106555,-0.26964188,-1.4220866,-0.050248952
21449402211552,1.0138936,0,,0.014540495,0.0077203594,-0.024749397,9.8158789,-0.41699201,1.4010201,0.74837399,-0.117999,-0.64393598,-0.106575,-0.26887401,-1.4220822,-0.050964593
21449404203520,1.0158856,0,,0.014540495,0.0077203594,-0.024749397,9.8158789,-0.41699201,1.4010201,0.74837399,-0.117999,-0.64393598,-0.106575,-0.26887401,-1.4220822,-0.050964593
21449406171392,1.0178534,0,,0.014974873,0.0096517931,-0.028967788,9.5952005,-0.43127501,1.19567,0.74838299,-0.117925,-0.64393401,-0.106603,-0.26786028,-1.4220806,-0.051912741
21449408166976,1.019849,0,,0.014974873,0.0096517931,-0.028967788,9.5952005,-0.43127501,1.19567,0.74838299,-0.117925,-0.64393401,-0.106603,-0.26786028,-1.4220806,-0.051912741
21449410172000,1.021854,0,,0.014974873,0.0096517931,-0.028967788,9.5952005,-0.43127501,1.19567,0.74838299,-0.117925,-0.64393401,-0.106603,-0.26786028,-1.4220806,-0.051912741
21449412162400,1.0238444,0,,0.01863399,0.010470021,-0.034878451,9.5293245,-0.180025,1.0625,0.74838799,-0.117841,-0.643938,-0.106637,-0.26671375,-1.422099,-0.052986798
21449414158976,1.025841,0,,0.01863399,0.010470021,-0.034878451,9.5293245,-0.180025,1.0625,0.74838799,-0.117841,-0.643938,-0.106637,-0.26671375,-1.422099,-0.052986798
21449416189568,1.0278716,0,,0.014805297,0.006618271,-0.029412864,9.3849525,-0.25220901,0.79680699,0.74838299,-0.117749,-0.64395303,-0.10668,-0.26540972,-1.4221457,-0.054219525
21449418152704,1.0298348,0,,0.014805297,0.006618271,-0.029412864,9.3849525,-0.25220901,0.79680699,0.74838299,-0.117749,-0.64395303,-0.10668,-0.26540972,-1.4221457,-0.054219525
21449420349376,1.0320314,0,,0.014805297,0.006618271,-0.029412864,9.3849525,-0.25220901,0.79680699,0.74838299,-0.117749,-0.64395303,-0.10668,-0.26540972,-1.4221457,-0.054219525
21449422184128,1.0338662,0,,0.0079466938,0.006833959,-0.018914727,9.3402538,-0.190716,0.64258897,0.74836802,-0.117685,-0.643978,-0.106711,-0.2645261,-1.4222176,-0.055055538
21449424153216,1.0358353,0,,0.0079466938,0.006833959,-0.018914727,9.3402538,-0.190716,0.64258897,0.74836802,-0.117685,-0.643978,-0.106711,-0.2645261,-1.4222176,-0.055055538
21449426151968,1.037834,0,,0.0039160127,0.002546802,-0.010573292,9.5035934,0.066478997,0.57693702,0.74834299,-0.117647,-0.64400899,-0.106736,-0.26397978,-1.4223045,-0.055582889
21449428298624,1.0399807,0,,0.0039160127,0.002546802,-0.010573292,9.5035934,0.066478997,0.57693702,0.74834299,-0.117647,-0.64400899,-0.106736,-0.26397978,-1.4223045,-0.055582889
21449430307936,1.04199,0,,0.0039160127,0.002546802,-0.010573292,9.5035934,0.066478997,0.57693702,0.74834299,-0.117647,-0.64400899,-0.106736,-0.26397978,-1.4223045,-0.055582889
21449432194304,1.0438764,0,,0.0016476781,0.0035512039,0.0015184016,9.6433249,-0.045092002,0.53672802,0.748312,-0.117621,-0.64404702,-0.106754,-0.26361878,-1.4224085,-0.055929966
21449434141760,1.0458238,0,,0.0016476781,0.0035512039,0.0015184016,9.6433249,-0.045092002,0.53672802,0.748312,-0.117621,-0.64404702,-0.106754,-0.26361878,-1.4224085,-0.055929966
21449436178496,1.0478605,0,,0.003020589,0.0042769293,-0.00034711109,9.8780956,-0.22281399,0.50050098,0.74828297,-0.117609,-0.64408201,-0.10676,-0.26351405,-1.4225021,-0.056026064
21449438238528,1.0499206,0,,0.003020589,0.0042769293,-0.00034711109,9.8780956,-0.22281399,0.50050098,0.74828297,-0.117609,-0.64408201,-0.10676,-0.26351405,-1.4225021,-0.056026064
21449440201632,1.0518837,0,,0.003020589,0.0042769293,-0.00034711109,9.8780956,-0.22281399,0.50050098,0.74828297,-0.117609,-0.64408201,-0.10676,-0.26351405,-1.4225021,-0.056026064
21449442218976,1.053901,0,,0.0019762712,0.0042162618,-0.0085590596,10.070492,-0.25861201,0.430801,0.74825197,-0.117593,-0.64411998,-0.106768,-0.26334367,-1.4226021,-0.056181817
21449444200032,1.0558821,0,,0.0019762712,0.0042162618,-0.0085590596,10.070492,-0.25861201,0.430801,0.74825197,-0.117593,-0.64411998,-0.106768,-0.26334367,-1.4226021,-0.056181817
21449446163520,1.0578456,0,,0.001877311,-0.00095198984,-0.01376426,10.269355,-0.215059,0.347348,0.74821001,-0.117571,-0.64416897,-0.106786,-0.26305662,-1.4227359,-0.056462535
21449448172128,1.0598542,0,,0.001877311,-0.00095198984,-0.01376426,10.269355,-0.215059,0.347348,0.74821001,-0.117571,-0.64416897,-0.106786,-0.26305662,-1.4227359,-0.056462535
21449450167200,1.0618492,0,,0.001877311,-0.00095198984,-0.01376426,10.269355,-0.215059,0.347348,0.74821001,-0.117571,-0.64416897,-0.106786,-0.26305662,-1.4227359,-0.056462535
21449452166048,1.0638481,0,,0.00059491293,-7.6096358e-05,-0.018148563,10.221943,-0.17160399,0.25096101,0.74815899,-0.117545,-0.64422798,-0.106817,-0.26262042,-1.4229023,-0.056904941
21449454162848,1.0658449,0,,0.00059491293,-7.6096358e-05,-0.018148563,10.221943,-0.17160399,0.25096101,0.74815899,-0.117545,-0.64422798,-0.106817,-0.26262042,-1.4229023,-0.056904941
21449456163808,1.0678459,0,,-0.0013537995,-0.00092184801,-0.014830708,9.9540205,-0.093082003,0.179405,0.74810398,-0.117519,-0.64429098,-0.106853,-0.26215417,-1.4230768,-0.057381592
21449458209024,1.0698911,0,,-0.0013537995,-0.00092184801,-0.014830708,9.9540205,-0.093082003,0.179405,0.74810398,-0.117519,-0.64429098,-0.106853,-0.26215417,-1.4230768,-0.057381592
21449460374528,1.0720566,0,,-0.0013537995,-0.00092184801,-0.014830708,9.9540205,-0.093082003,0.179405,0.74810398,-0.117519,-0.64429098,-0.106853,-0.26215417,-1.4230768,-0.057381592
21449462184576,1.0738666,0,,-0.00070877822,-0.00010372491,-0.0046090133,9.8225737,-0.178258,0.118297,0.74804902,-0.1175,-0.64435399,-0.106879,-0.26184919,-1.4232481,-0.057695263
21449464295136,1.0759772,0,,-0.00070877822,-0.00010372491,-0.0046090133,9.8225737,-0.178258,0.118297,0.74804902,-0.1175,-0.64435399,-0.106879,-0.26184919,-1.4232481,-0.057695263
21449466211136,1.0778932,0,,-0.0019983846,0.0012909502,0.00030473448,9.6545134,-0.049993001,0.128168,0.74799699,-0.117501,-0.64441299,-0.106884,-0.26192026,-1.4234051,-0.057630773
21449468164000,1.079846,0,,-0.0019983846,0.0012909502,0.00030473448,9.6545134,-0.049993001,0.128168,0.74799699,-0.117501,-0.64441299,-0.106884,-0.26192026,-1.4234051,-0.057630773
21449470153696,1.0818357,0,,-0.0019983846,0.0012909502,0.00030473448,9.6545134,-0.049993001,0.128168,0.74799699,-0.117501,-0.64441299,-0.106884,-0.26192026,-1.4234051,-0.057630773
21449472196256,1.0838783,0,,-0.0082392456,-0.0061823579,0.010566363,9.4846601,0.002075,0.13337,0.74794197,-0.117514,-0.64447397,-0.106887,-0.26213312,-1.4235668,-0.057439221
21449474173920,1.085856,0,,-0.0082392456,-0.0061823579,0.010566363,9.4846601,0.002075,0.13337,0.74794197,-0.117514,-0.64447397,-0.106887,-0.26213312,-1.4235668,-0.057439221
21449476154176,1.0878362,0,,-0.0070070957,-0.0039470271,0.015828967,9.2832279,-0.097012997,0.15542901,0.74788302,-0.117544,-0.64453799,-0.106881,-0.26261909,-1.4237351,-0.056985435
21449478180640,1.0898627,0,,-0.0070070957,-0.0039470271,0.015828967,9.2832279,-0.097012997,0.15542901,0.74788302,-0.117544,-0.64453799,-0.106881,-0.26261909,-1.4237351,-0.056985435
21449480350784,1.0920328,0,,-0.0070070957,-0.0039470271,0.015828967,9.2832279,-0.097012997,0.15542901,0.74788302,-0.117544,-0.64453799,-0.106881,-0.26261909,-1.4237351,-0.056985435
21449482148256,1.0938303,0,,-0.011020603,0.0013683032,0.019618811,9.2495842,-0.096170999,0.26872,0.74783802,-0.117585,-0.64458603,-0.106863,-0.26329439,-1.4238587,-0.056342385
21449484178528,1.0958606,0,,-0.011020603,0.0013683032,0.019618811,9.2495842,-0.096170999,0.26872,0.74783802,-0.117585,-0.64458603,-0.106863,-0.26329439,-1.4238587,-0.056342385
21449486175552,1.0978576,0,,-0.017681686,-0.0036021849,0.027026283,9.5833635,-0.120479,0.46103901,0.74779499,-0.117645,-0.64462698,-0.106849,-0.26411995,-1.4239671,-0.055580413
21449488142368,1.0998244,0,,-0.017681686,-0.0036021849,0.027026283,9.5833635,-0.120479,0.46103901,0.74779499,-0.117645,-0.64462698,-0.106849,-0.26411995,-1.4239671,-0.055580413
21449490156704,1.1018388,0,,-0.017681686,-0.0036021849,0.027026283,9.5833635,-0.120479,0.46103901,0.74779499,-0.117645,-0.64462698,-0.106849,-0.26411995,-1.4239671,-0.055580413
21449492174816,1.1038569,0,,-0.016023728,-0.0047019347,0.029576262,9.8407803,-0.124211,0.69572699,0.74775499,-0.117718,-0.644665,-0.106825,-0.26515324,-1.4240621,-0.054617443
21449494138752,1.1058208,0,,-0.016023728,-0.0047019347,0.029576262,9.8407803,-0.124211,0.69572699,0.74775499,-0.117718,-0.644665,-0.106825,-0.26515324,-1.4240621,-0.054617443
21449496278464,1.1079605,0,,-0.017858663,-0.0047456376,0.022892298,10.016418,-0.375934,0.74645299,0.74771899,-0.117785,-0.644696,-0.10681,-0.26605688,-1.4241452,-0.053787174
21449498233280,1.1099153,0,,-0.017858663,-0.0047456376,0.022892298,10.016418,-0.375934,0.74645299,0.74771899,-0.117785,-0.644696,-0.10681,-0.26605688,-1.4241452,-0.053787174
21449500442400,1.1121244,0,,-0.017858663,-0.0047456376,0.022892298,10.016418,-0.375934,0.74645299,0.74771899,-0.117785,-0.644696,-0.10681,-0.26605688,-1.4241452,-0.053787174
21449502184352,1.1138664,0,,-0.022179592,-0.0067718075,0.031021778,9.8651714,0.073351003,0.98453802,0.74768299,-0.117873,-0.64472598,-0.106785,-0.26724767,-1.4242207,-0.052686793
21449504169536,1.1158516,0,,-0.022179592,-0.0067718075,0.031021778,9.8651714,0.073351003,0.98453802,0.74768299,-0.117873,-0.64472598,-0.106785,-0.26724767,-1.4242207,-0.052686793
21449506183296,1.1178653,0,,-0.022936856,-0.009162612,0.030458176,10.109974,-0.31685299,1.1964,0.74765199,-0.117948,-0.64475,-0.106778,-0.26813911,-1.4242856,-0.051890787
21449508195616,1.1198777,0,,-0.022936856,-0.009162612,0.030458176,10.109974,-0.31685299,1.1964,0.74765199,-0.117948,-0.64475,-0.106778,-0.26813911,-1.4242856,-0.051890787
21449510161344,1.1218434,0,,-0.022936856,-0.009162612,0.030458176,10.109974,-0.31685299,1.1964,0.74765199,-0.117948,-0.64475,-0.106778,-0.26813911,-1.4242856,-0.051890787
21449512172064,1.1238541,0,,-0.020899968,-0.0090160747,0.023683053,9.9821024,-0.29929501,1.317317,0.74762398,-0.118036,-0.644768,-0.106762,-0.26924444,-1.4243351,-0.050888285
21449514177344,1.1258594,0,,-0.020899968,-0.0090160747,0.023683053,9.9821024,-0.29929501,1.317317,0.74762398,-0.118036,-0.644768,-0.106762,-0.26924444,-1.4243351,-0.050888285
21449516155392,1.1278374,0,,-0.020290901,-0.0087003793,0.018650152,10.231006,-0.33581501,1.587248,0.74760598,-0.118105,-0.644777,-0.106759,-0.27000382,-1.4243624,-0.050224451
21449518159680,1.1298417,0,,-0.020290901,-0.0087003793,0.018650152,10.231006,-0.33581501,1.587248,0.74760598,-0.118105,-0.644777,-0.106759,-0.27000382,-1.4243624,-0.050224451
21449520356096,1.1320381,0,,-0.020290901,-0.0087003793,0.018650152,10.231006,-0.33581501,1.587248,0.74760598,-0.118105,-0.644777,-0.106759,-0.27000382,-1.4243624,-0.050224451
21449522149536,1.1338316,0,,-0.019230422,-0.0081950887,0.021941389,9.9180136,-0.51602298,1.7241549,0.747594,-0.118173,-0.64477801,-0.106757,-0.27074431,-1.4243688,-0.049579392
21449524161152,1.1358432,0,,-0.019230422,-0.0081950887,0.021941389,9.9180136,-0.51602298,1.7241549,0.747594,-0.118173,-0.64477801,-0.106757,-0.27074431,-1.4243688,-0.049579392
21449526154912,1.137837,0,,-0.015310709,-0.0030792844,0.02205548,9.5188532,-0.50479102,1.937124,0.74759799,-0.118246,-0.64476401,-0.106742,-0.27160252,-1.4243306,-0.048803962
21449528188352,1.1398704,0,,-0.015310709,-0.0030792844,0.02205548,9.5188532,-0.50479102,1.937124,0.74759799,-0.118246,-0.64476401,-0.106742,-0.27160252,-1.4243306,-0.048803962
21449530274528,1.1419566,0,,-0.015310709,-0.0030792844,0.02205548,9.5188532,-0.50479102,1.937124,0.74759799,-0.118246,-0.64476401,-0.106742,-0.27160252,-1.4243306,-0.048803962
21449532172064,1.1438541,0,,-0.016925103,-0.0023054577,0.01763622,9.4356327,-0.577748,2.084466,0.74761802,-0.11831,-0.64473099,-0.106729,-0.27232525,-1.4242436,-0.048154925
21449534192288,1.1458743,0,,-0.016925103,-0.0023054577,0.01763622,9.4356327,-0.577748,2.084466,0.74761802,-0.11831,-0.64473099,-0.106729,-0.27232525,-1.4242436,-0.048154925
21449536156256,1.1478383,0,,-0.01863563,-0.0065592441,0.015128636,9.2840958,-0.83445299,2.260484,0.74763697,-0.118375,-0.64469802,-0.106725,-0.27297265,-1.4241579,-0.047596244
21449538197760,1.1498798,0,,-0.01863563,-0.0065592441,0.015128636,9.2840958,-0.83445299,2.260484,0.74763697,-0.118375,-0.64469802,-0.106725,-0.27297265,-1.4241579,-0.047596244
21449540385344,1.1520674,0,,-0.01863563,-0.0065592441,0.015128636,9.2840958,-0.83445299,2.260484,0.74763697,-0.118375,-0.64469802,-0.106725,-0.27297265,-1.4241579,-0.047596244
21449542193408,1.1538755,0,,-0.01705274,-0.0038578409,0.019834219,9.3704071,-0.642618,2.450305,0.74766397,-0.118452,-0.64465398,-0.106709,-0.2738338,-1.4240432,-0.046824164
21449544150912,1.155833,0,,-0.01705274,-0.0038578409,0.019834219,9.3704071,-0.642618,2.450305,0.74766397,-0.118452,-0.64465398,-0.106709,-0.2738338,-1.4240432,-0.046824164
21449546149568,1.1578316,0,,-0.016641837,-0.0027753179,0.021116373,9.4703674,-0.78709698,2.7016189,0.74770099,-0.118524,-0.64459997,-0.106695,-0.27460174,-1.423902,-0.046140485
21449548222944,1.159905,0,,-0.016641837,-0.0027753179,0.021116373,9.4703674,-0.78709698,2.7016189,0.74770099,-0.118524,-0.64459997,-0.106695,-0.27460174,-1.423902,-0.046140485
21449550158784,1.1618408,0,,-0.016641837,-0.0027753179,0.021116373,9.4703674,-0.78709698,2.7016189,0.74770099,-0.118524,-0.64459997,-0.106695,-0.27460174,-1.423902,-0.046140485
21449552160960,1.163843,0,,-0.010668621,0.00061425115,0.019889546,9.5686026,-0.85410702,2.8026021,0.74775302,-0.118591,-0.64453202,-0.106674,-0.27534451,-1.4237195,-0.045466352
21449554176992,1.165859,0,,-0.010668621,0.00061425115,0.019889546,9.5686026,-0.85410702,2.8026021,0.74775302,-0.118591,-0.64453202,-0.106674,-0.27534451,-1.4237195,-0.045466352
21449556190528,1.1678726,0,,-0.00801799,-0.001767303,0.018524489,9.5237122,-0.76388901,2.9640419,0.74781197,-0.11865,-0.64445698,-0.106645,-0.27606063,-1.4235167,-0.044795447
21449558139200,1.1698212,0,,-0.00801799,-0.001767303,0.018524489,9.5237122,-0.76388901,2.9640419,0.74781197,-0.11865,-0.64445698,-0.106645,-0.27606063,-1.4235167,-0.044795447
21449560378752,1.1720608,0,,-0.00801799,-0.001767303,0.018524489,9.5237122,-0.76388901,2.9640419,0.74781197,-0.11865,-0.64445698,-0.106645,-0.27606063,-1.4235167,-0.044795447
21449562186208,1.1738683,0,,-0.0033454297,-0.0032548471,0.013986091,9.6373262,-1.006112,3.1547561,0.74787199,-0.118694,-0.64438403,-0.106621,-0.27657549,-1.4233167,-0.044313386
21449564211328,1.1758934,0,,-0.0033454297,-0.0032548471,0.013986091,9.6373262,-1.006112,3.1547561,0.74787199,-0.118694,-0.64438403,-0.106621,-0.27657549,-1.4233167,-0.044313386
21449566162656,1.1778447,0,,0.0011789524,-0.00085346602,0.0045696557,9.7238541,-0.97586203,3.2771699,0.74794102,-0.118726,-0.64430201,-0.106594,-0.27698107,-1.4230941,-0.043916741
21449568158784,1.1798408,0,,0.0011789524,-0.00085346602,0.0045696557,9.7238541,-0.97586203,3.2771699,0.74794102,-0.118726,-0.64430201,-0.106594,-0.27698107,-1.4230941,-0.043916741
21449570162400,1.1818444,0,,0.0011789524,-0.00085346602,0.0045696557,9.7238541,-0.97586203,3.2771699,0.74794102,-0.118726,-0.64430201,-0.106594,-0.27698107,-1.4230941,-0.043916741
21449572161152,1.1838432,0,,0.0035149011,-0.002851676,0.0023994788,9.8904324,-0.94479501,3.337518,0.74801397,-0.118736,-0.64421898,-0.106576,-0.27706529,-1.4228706,-0.043824238
21449574152352,1.1858344,0,,0.0035149011,-0.002851676,0.0023994788,9.8904324,-0.94479501,3.337518,0.74801397,-0.118736,-0.64421898,-0.106576,-0.27706529,-1.4228706,-0.043824238
21449576151936,1.187834,0,,0.0062721548,0.0022620513,0.00044443064,9.453763,-0.89750898,3.2671371,0.74808997,-0.118741,-0.64413202,-0.106559,-0.27708686,-1.4226368,-0.04378839
21449578149056,1.1898311,0,,0.0062721548,0.0022620513,0.00044443064,9.453763,-0.89750898,3.2671371,0.74808997,-0.118741,-0.64413202,-0.106559,-0.27708686,-1.4226368,-0.04378839
21449580344928,1.192027,0,,0.0062721548,0.0022620513,0.00044443064,9.453763,-0.89750898,3.2671371,0.74808997,-0.118741,-0.64413202,-0.106559,-0.27708686,-1.4226368,-0.04378839
21449582179456,1.1938615,0,,0.011931071,0.0018508344,-0.004976632,9.2946463,-0.90150797,3.2060061,0.748169,-0.118731,-0.64404398,-0.106544,-0.27693516,-1.4223999,-0.04390608
21449584177856,1.1958599,0,,0.011931071,0.0018508344,-0.004976632,9.2946463,-0.90150797,3.2060061,0.748169,-0.118731,-0.64404398,-0.106544,-0.27693516,-1.4223999,-0.04390608
21449586153536,1.1978356,0,,0.01532345,0.0015908851,-0.0062933779,9.369072,-0.83511198,3.123698,0.74824703,-0.118705,-0.64396101,-0.106525,-0.27666122,-1.4221738,-0.044119391
21449588239200,1.1999212,0,,0.01532345,0.0015908851,-0.0062933779,9.369072,-0.83511198,3.123698,0.74824703,-0.118705,-0.64396101,-0.106525,-0.27666122,-1.4221738,-0.044119391
21449590208832,1.2018909,0,,0.01532345,0.0015908851,-0.0062933779,9.369072,-0.83511198,3.123698,0.74824703,-0.118705,-0.64396101,-0.106525,-0.27666122,-1.4221738,-0.044119391
21449592186816,1.2038689,0,,0.016485769,0.0049961968,-0.0052714179,9.314682,-0.71097797,2.995028,0.74832398,-0.118671,-0.64388198,-0.106507,-0.27629552,-1.4219566,-0.044411594
21449594149760,1.2058318,0,,0.016485769,0.0049961968,-0.0052714179,9.314682,-0.71097797,2.995028,0.74832398,-0.118671,-0.64388198,-0.106507,-0.27629552,-1.4219566,-0.044411594
21449596218592,1.2079006,0,,0.018333515,0.0086907799,-0.0044694043,9.2662954,-0.60660303,2.7840459,0.74840301,-0.118633,-0.64380002,-0.106488,-0.27589916,-1.4217339,-0.044729684
21449598203712,1.2098858,0,,0.018333515,0.0086907799,-0.0044694043,9.2662954,-0.60660303,2.7840459,0.74840301,-0.118633,-0.64380002,-0.106488,-0.27589916,-1.4217339,-0.044729684
21449600344032,1.2120261,0,,0.018333515,0.0086907799,-0.0044694043,9.2662954,-0.60660303,2.7840459,0.74840301,-0.118633,-0.64380002,-0.106488,-0.27589916,-1.4217339,-0.044729684
21449602169568,1.2138516,0,,0.017645227,0.0063033262,-0.0066321117,9.4243116,-0.59103,2.6041241,0.748474,-0.118587,-0.64372802,-0.106473,-0.27540728,-1.4215364,-0.045135487
21449604196416,1.2158785,0,,0.017645227,0.0063033262,-0.0066321117,9.4243116,-0.59103,2.6041241,0.748474,-0.118587,-0.64372802,-0.106473,-0.27540728,-1.4215364,-0.045135487
21449606139616,1.2178217,0,,0.0085983121,0.0027226788,-0.010515347,9.7511377,-0.41885799,2.4710741,0.74853098,-0.118546,-0.64367002,-0.106472,-0.2748805,-1.421383,-0.045603675
21449608141248,1.2198233,0,,0.0085983121,0.0027226788,-0.010515347,9.7511377,-0.41885799,2.4710741,0.74853098,-0.118546,-0.64367002,-0.106472,-0.2748805,-1.421383,-0.045603675
21449610164960,1.221847,0,,0.0085983121,0.0027226788,-0.010515347,9.7511377,-0.41885799,2.4710741,0.74853098,-0.118546,-0.64367002,-0.106472,-0.2748805,-1.421383,-0.045603675
21449612168768,1.2238508,0,,0.0071290414,0.006408971,-0.012285809,9.83883,-0.34382501,2.2519009,0.74857497,-0.118507,-0.64362198,-0.10649,-0.27423151,-1.4212614,-0.046223701
21449614129056,1.2258111,0,,0.0071290414,0.006408971,-0.012285809,9.83883,-0.34382501,2.2519009,0.74857497,-0.118507,-0.64362198,-0.10649,-0.27423151,-1.4212614,-0.046223701
21449616163968,1.227846,0,,0.0020065352,-0.00024849998,-0.012116547,9.7974806,-0.289,1.9903769,0.74860799,-0.11847,-0.64358801,-0.106512,-0.27359298,-1.4211763,-0.046843693
21449618159104,1.2298412,0,,0.0020065352,-0.00024849998,-0.012116547,9.7974806,-0.289,1.9903769,0.74860799,-0.11847,-0.64358801,-0.106512,-0.27359298,-1.4211763,-0.046843693
21449620327296,1.2320093,0,,0.0020065352,-0.00024849998,-0.012116547,9.7974806,-0.289,1.9903769,0.74860799,-0.11847,-0.64358801,-0.106512,-0.27359298,-1.4211763,-0.046843693
21449622159168,1.2338412,0,,0.0039364855,0.0048068112,-0.012803211,9.8993673,-0.128102,1.7422889,0.74862701,-0.118436,-0.64356601,-0.106542,-0.27294159,-1.4211279,-0.047488873
21449624159008,1.2358411,0,,0.0039364855,0.0048068112,-0.012803211,9.8993673,-0.128102,1.7422889,0.74862701,-0.118436,-0.64356601,-0.106542,-0.27294159,-1.4211279,-0.047488873
21449626154144,1.2378362,0,,0.0039364855,0.0048068112,-0.012803211,9.8993673,-0.128102,1.7422889,0.74862701,-0.118436,-0.64356601,-0.106542,-0.27294159,-1.4211279,-0.047488873
21449628154528,1.2398366,0,,0.0039364855,0.0048068112,-0.012803211,9.8993673,-0.128102,1.7422889,0.74862701,-0.118436,-0.64356601,-0.106542,-0.27294159,-1.4211279,-0.047488873
21449630362720,1.2420448,0,,0.0039364855,0.0048068112,-0.012803211,9.8993673,-0.128102,1.7422889,0.74862701,-0.118436,-0.64356601,-0.106542,-0.27294159,-1.4211279,-0.047488873
21449632177056,1.2438591,0,,0.010790218,0.005716442,-0.014957209,9.8671112,-0.056832999,1.214536,0.74864203,-0.118342,-0.643556,-0.106605,-0.27142219,-1.4211195,-0.048962857
21449634167008,1.2458491,0,,0.010790218,0.005716442,-0.014957209,9.8671112,-0.056832999,1.214536,0.74864203,-0.118342,-0.643556,-0.106605,-0.27142219,-1.4211195,-0.048962857
21449636185984,1.247868,0,,0.0037203089,0.0066527761,-0.019829629,9.6273746,0.120256,0.94748402,0.74863797,-0.118281,-0.64356601,-0.106638,-0.27053587,-1.4211513,-0.049809514
21449638203072,1.2498851,0,,0.0037203089,0.0066527761,-0.019829629,9.6273746,0.120256,0.94748402,0.74863797,-0.118281,-0.64356601,-0.106638,-0.27053587,-1.4211513,-0.049809514
21449640356160,1.2520382,0,,0.0037203089,0.0066527761,-0.019829629,9.6273746,0.120256,0.94748402,0.74863797,-0.118281,-0.64356601,-0.106638,-0.27053587,-1.4211513,-0.049809514
21449642155360,1.2538374,0,,0.0043517865,0.0091292767,-0.015283184,9.7003603,0.090430997,0.68027598,0.74862701,-0.118226,-0.64358199,-0.106686,-0.26958399,-1.421207,-0.05074988
21449644152608,1.2558347,0,,0.0043517865,0.0091292767,-0.015283184,9.7003603,0.090430997,0.68027598,0.74862701,-0.118226,-0.64358199,-0.106686,-0.26958399,-1.421207,-0.05074988
21449646184224,1.2578663,0,,0.0087280777,0.0072589465,-0.011437195,9.6425924,0.105809,0.43300101,0.74860698,-0.118173,-0.64361,-0.106717,-0.26882429,-1.4212882,-0.051478226
21449648171936,1.259854,0,,0.0087280777,0.0072589465,-0.011437195,9.6425924,0.105809,0.43300101,0.74860698,-0.118173,-0.64361,-0.106717,-0.26882429,-1.4212882,-0.051478226
21449650184608,1.2618667,0,,0.0087280777,0.0072589465,-0.011437195,9.6425924,0.105809,0.43300101,0.74860698,-0.118173,-0.64361,-0.106717,-0.26882429,-1.4212882,-0.051478226
21449652180256,1.2638623,0,,0.011917108,0.0063430848,-0.0095352402,9.7139034,0.027412999,0.17926499,0.74857801,-0.118118,-0.64365,-0.106736,-0.26817646,-1.4213975,-0.052073521
21449654205024,1.2658871,0,,0.011917108,0.0063430848,-0.0095352402,9.7139034,0.027412999,0.17926499,0.74857801,-0.118118,-0.64365,-0.106736,-0.26817646,-1.4213975,-0.052073521
21449656146112,1.2678282,0,,0.016826894,0.0060270758,-0.0042069766,9.7468967,-0.039935999,-0.027408,0.74853897,-0.11807,-0.643704,-0.106739,-0.26775829,-1.4215364,-0.052424122
21449658143104,1.2698252,0,,0.016826894,0.0060270758,-0.0042069766,9.7468967,-0.039935999,-0.027408,0.74853897,-0.11807,-0.643704,-0.106739,-0.26775829,-1.4215364,-0.052424122
21449660329056,1.2720111,0,,0.016826894,0.0060270758,-0.0042069766,9.7468967,-0.039935999,-0.027408,0.74853897,-0.11807,-0.643704,-0.106739,-0.26775829,-1.4215364,-0.052424122
21449662141600,1.2738236,0,,0.013165019,0.0012516628,0.00017503907,9.8118868,-0.063914999,-0.18711001,0.74848902,-0.11803,-0.64377099,-0.106724,-0.26759433,-1.4217038,-0.052507533
21449664277184,1.2759592,0,,0.013165019,0.0012516628,0.00017503907,9.8118868,-0.063914999,-0.18711001,0.74848902,-0.11803,-0.64377099,-0.106724,-0.26759433,-1.4217038,-0.052507533
21449666178688,1.2778607,0,,0.01018246,-0.00074607587,0.00044942228,9.9531116,-0.29325598,-0.29492399,0.74842799,-0.118006,-0.64384902,-0.106709,-0.26762728,-1.4219013,-0.052416511
21449668188416,1.2798705,0,,0.01018246,-0.00074607587,0.00044942228,9.9531116,-0.29325598,-0.29492399,0.74842799,-0.118006,-0.64384902,-0.106709,-0.26762728,-1.4219013,-0.052416511
21449670159840,1.2818419,0,,0.01018246,-0.00074607587,0.00044942228,9.9531116,-0.29325598,-0.29492399,0.74842799,-0.118006,-0.64384902,-0.106709,-0.26762728,-1.4219013,-0.052416511
21449672179264,1.2838613,0,,-0.00092296503,-0.001758332,-0.00065812874,9.9453392,-0.42275199,-0.392629,0.74835902,-0.118008,-0.64393097,-0.106698,-0.26790537,-1.4221127,-0.052122478
21449674164512,1.2858466,0,,-0.00092296503,-0.001758332,-0.00065812874,9.9453392,-0.42275199,-0.392629,0.74835902,-0.118008,-0.64393097,-0.106698,-0.26790537,-1.4221127,-0.052122478
21449676164288,1.2878463,0,,0.00530697,-0.002213793,-0.0042952552,9.9369535,-0.50933999,-0.454629,0.74828297,-0.118017,-0.64401901,-0.106688,-0.26824094,-1.4223411,-0.051782121
21449678159968,1.289842,0,,0.00530697,-0.002213793,-0.0042952552,9.9369535,-0.50933999,-0.454629,0.74828297,-0.118017,-0.64401901,-0.106688,-0.26824094,-1.4223411,-0.051782121
21449680359136,1.2920412,0,,0.00530697,-0.002213793,-0.0042952552,9.9369535,-0.50933999,-0.454629,0.74828297,-0.118017,-0.64401901,-0.106688,-0.26824094,-1.4223411,-0.051782121
21449682157344,1.2938394,0,,0.0043582093,0.0040761641,-0.0025235017,10.044881,-0.44589701,-0.405682,0.74821198,-0.118019,-0.644104,-0.106672,-0.26856094,-1.4225593,-0.051440492
21449684158048,1.2958401,0,,0.0043582093,0.0040761641,-0.0025235017,10.044881,-0.44589701,-0.405682,0.74821198,-0.118019,-0.644104,-0.106672,-0.26856094,-1.4225593,-0.051440492
21449686179872,1.2978619,0,,0.00076270886,0.001330447,0.0030560366,10.108724,-0.42271399,-0.35294199,0.74814397,-0.118032,-0.64418298,-0.106657,-0.26897319,-1.4227616,-0.051022326
21449688154624,1.2998367,0,,0.00076270886,0.001330447,0.0030560366,10.108724,-0.42271399,-0.35294199,0.74814397,-0.118032,-0.64418298,-0.106657,-0.26897319,-1.4227616,-0.051022326
21449690153408,1.3018355,0,,0.00076270886,0.001330447,0.0030560366,10.108724,-0.42271399,-0.35294199,0.74814397,-0.118032,-0.64418298,-0.106657,-0.26897319,-1.4227616,-0.051022326
21449692154848,1.3038369,0,,0.0018888477,0.0021778567,0.0071267725,10.064681,-0.489757,-0.338916,0.74807799,-0.118052,-0.64425898,-0.106636,-0.26951693,-1.4229545,-0.050474206
21449694152032,1.3058341,0,,0.0018888477,0.0021778567,0.0071267725,10.064681,-0.489757,-0.338916,0.74807799,-0.118052,-0.64425898,-0.106636,-0.26951693,-1.4229545,-0.050474206
21449696271072,1.3079531,0,,-0.0019201415,-3.2672564e-05,0.0095160415,10.006585,-0.50457799,-0.30019599,0.74801302,-0.118085,-0.644333,-0.106608,-0.2702452,-1.4231407,-0.04975258
21449698172224,1.3098543,0,,-0.0019201415,-3.2672564e-05,0.0095160415,10.006585,-0.50457799,-0.30019599,0.74801302,-0.118085,-0.644333,-0.106608,-0.2702452,-1.4231407,-0.04975258
21449700329120,1.3120112,0,,-0.0019201415,-3.2672564e-05,0.0095160415,10.006585,-0.50457799,-0.30019599,0.74801302,-0.118085,-0.644333,-0.106608,-0.2702452,-1.4231407,-0.04975258
21449702244800,1.3139268,0,,-0.0015297985,-0.0055871304,0.0067444409,9.9025936,-0.45262799,-0.21149699,0.74794197,-0.118123,-0.64441299,-0.106584,-0.27100182,-1.4233442,-0.049012929
21449704201216,1.3158833,0,,-0.0015297985,-0.0055871304,0.0067444409,9.9025936,-0.45262799,-0.21149699,0.74794197,-0.118123,-0.64441299,-0.106584,-0.27100182,-1.4233442,-0.049012929
21449706155424,1.3178375,0,,-0.0050955936,-0.0056273078,0.0014054961,9.816925,-0.45965499,-0.084582001,0.74786997,-0.11815,-0.644494,-0.106569,-0.27157564,-1.4235549,-0.04845411
21449708183936,1.319866,0,,-0.0050955936,-0.0056273078,0.0014054961,9.816925,-0.45965499,-0.084582001,0.74786997,-0.11815,-0.644494,-0.106569,-0.27157564,-1.4235549,-0.04845411
21449710180768,1.3218628,0,,-0.0050955936,-0.0056273078,0.0014054961,9.816925,-0.45965499,-0.084582001,0.74786997,-0.11815,-0.644494,-0.106569,-0.27157564,-1.4235549,-0.04845411
21449712199424,1.3238815,0,,-0.0044942575,-0.0041415268,-0.0015428362,9.7481451,-0.360167,0.099411003,0.74780101,-0.118175,-0.64456898,-0.106566,-0.27201549,-1.4237518,-0.048044254
21449714179584,1.3258616,0,,-0.0044942575,-0.0041415268,-0.0015428362,9.7481451,-0.360167,0.099411003,0.74780101,-0.118175,-0.64456898,-0.106566,-0.27201549,-1.4237518,-0.048044254
21449716190144,1.3278722,0,,-0.0019990304,0.00040294417,-0.0026593583,9.7025166,-0.26097599,0.320972,0.74774599,-0.118187,-0.64463097,-0.10657,-0.27222481,-1.4239162,-0.047853647
21449718149472,1.3298315,0,,-0.0019990304,0.00040294417,-0.0026593583,9.7025166,-0.26097599,0.320972,0.74774599,-0.118187,-0.64463097,-0.10657,-0.27222481,-1.4239162,-0.047853647
21449720339136,1.3320212,0,,-0.0019990304,0.00040294417,-0.0026593583,9.7025166,-0.26097599,0.320972,0.74774599,-0.118187,-0.64463097,-0.10657,-0.27222481,-1.4239162,-0.047853647
21449722174976,1.333857,0,,-0.0055254855,-0.00023362977,0.0041920715,9.6362066,-0.230629,0.59710902,0.74770302,-0.118196,-0.644678,-0.106577,-0.27235531,-1.4240411,-0.047744998
21449724170592,1.3358526,0,,-0.0055254855,-0.00023362977,0.0041920715,9.6362066,-0.230629,0.59710902,0.74770302,-0.118196,-0.644678,-0.106577,-0.27235531,-1.4240411,-0.047744998
21449726135616,1.3378177,0,,-0.0079750902,-0.0045054803,0.013660674,9.4588413,-0.028240999,0.80598199,0.747666,-0.118224,-0.64471602,-0.106574,-0.27275242,-1.4241435,-0.047384223
21449728139168,1.3398212,0,,-0.0079750902,-0.0045054803,0.013660674,9.4588413,-0.028240999,0.80598199,0.747666,-0.118224,-0.64471602,-0.106574,-0.27275242,-1.4241435,-0.047384223
