t_recv_ns,t_s,t_stamp_ns,frame_id,angular_velocity.x,angular_velocity.y,angular_velocity.z,linear_acceleration.x,linear_acceleration.y,linear_acceleration.z,quaternion.w,quaternion.x,quaternion.y,quaternion.z,rpy.x,rpy.y,rpy.z
4769059029216,0,0,,0.0018564718,-0.0022863638,-0.00035945055,9.7408161,-0.429441,0.99136001,0.73980999,-0.071625002,-0.66718197,-0.049167,-0.38552885,-1.4632362,0.2142451
4769059430496,0.00040128,0,,0.0018564718,-0.0022863638,-0.00035945055,9.7408161,-0.429441,0.99136001,0.73980999,-0.071625002,-0.66718197,-0.049167,-0.38552885,-1.4632362,0.2142451
4769061419616,0.0023904,0,,0.0023088436,-0.0026181685,0.0052768633,9.8666677,-0.46758199,0.99240398,0.73980701,-0.071626,-0.66718602,-0.049157999,-0.38568548,-1.4632395,0.21441251
4769063409120,0.004379904,0,,0.0023088436,-0.0026181685,0.0052768633,9.8666677,-0.46758199,0.99240398,0.73980701,-0.071626,-0.66718602,-0.049157999,-0.38568548,-1.4632395,0.21441251
4769065160512,0.006131296,0,,0.0023088436,-0.0026181685,0.0052768633,9.8666677,-0.46758199,0.99240398,0.73980701,-0.071626,-0.66718602,-0.049157999,-0.38568548,-1.4632395,0.21441251
4769067210528,0.008181312,0,,0.0035189502,-0.0024124989,0.0038808267,9.8272018,-0.36677399,1.026531,0.73980498,-0.071627997,-0.66719002,-0.049137998,-0.38597783,-1.463239,0.21473099
4769069177216,0.010148,0,,0.0035189502,-0.0024124989,0.0038808267,9.8272018,-0.36677399,1.026531,0.73980498,-0.071627997,-0.66719002,-0.049137998,-0.38597783,-1.463239,0.21473099
4769071152736,0.01212352,0,,-0.0010829768,0.001134464,-0.00081498152,9.7059336,-0.35883901,0.95946097,0.73980498,-0.071629003,-0.667189,-0.049137,-0.38598838,-1.4632384,0.21474053
4769073148672,0.014119456,0,,-0.0010829768,0.001134464,-0.00081498152,9.7059336,-0.35883901,0.95946097,0.73980498,-0.071629003,-0.667189,-0.049137,-0.38598838,-1.4632384,0.21474053
4769075532128,0.016502912,0,,-0.0010829768,0.001134464,-0.00081498152,9.7059336,-0.35883901,0.95946097,0.73980498,-0.071629003,-0.667189,-0.049137,-0.38598838,-1.4632384,0.21474053
4769077147424,0.018118208,0,,0.00087854641,0.003423376,-0.00083826415,9.7885132,-0.423803,0.952564,0.73980999,-0.071626,-0.667184,-0.049143001,-0.38584028,-1.4632266,0.21459031
4769079151040,0.020121824,0,,0.00087854641,0.003423376,-0.00083826415,9.7885132,-0.423803,0.952564,0.73980999,-0.071626,-0.667184,-0.049143001,-0.38584028,-1.4632266,0.21459031
4769081145440,0.022116224,0,,-0.0074828023,-0.0034524357,0.0030679223,9.8663511,-0.37754199,1.000633,0.73980999,-0.071631998,-0.66718298,-0.049146,-0.38587819,-1.4632237,0.21461373
4769083149728,0.024120512,0,,-0.0074828023,-0.0034524357,0.0030679223,9.8663511,-0.37754199,1.000633,0.73980999,-0.071631998,-0.66718298,-0.049146,-0.38587819,-1.4632237,0.21461373
4769085159200,0.026129984,0,,-0.0074828023,-0.0034524357,0.0030679223,9.8663511,-0.37754199,1.000633,0.73980999,-0.071631998,-0.66718298,-0.049146,-0.38587819,-1.4632237,0.21461373
4769087144768,0.028115552,0,,-0.0047296155,-0.0048117854,5.8224184e-05,9.8184538,-0.39949101,0.99766797,0.73980302,-0.071649,-0.667189,-0.049157001,-0.38602783,-1.4632402,0.21472372
4769089192608,0.030163392,0,,-0.0047296155,-0.0048117854,5.8224184e-05,9.8184538,-0.39949101,0.99766797,0.73980302,-0.071649,-0.667189,-0.049157001,-0.38602783,-1.4632402,0.21472372
4769091062240,0.032033024,0,,-0.00056243238,-0.00255312,-0.0030905243,9.6813726,-0.35092199,0.94482601,0.739797,-0.071650997,-0.66719401,-0.049164001,-0.38601821,-1.4632567,0.21470117
4769093080288,0.034051072,0,,-0.00056243238,-0.00255312,-0.0030905243,9.6813726,-0.35092199,0.94482601,0.739797,-0.071650997,-0.66719401,-0.049164001,-0.38601821,-1.4632567,0.21470117
4769095422528,0.036393312,0,,-0.00056243238,-0.00255312,-0.0030905243,9.6813726,-0.35092199,0.94482601,0.739797,-0.071650997,-0.66719401,-0.049164001,-0.38601821,-1.4632567,0.21470117
4769097169216,0.03814,0,,0.0042754284,0.00080262454,-2.8501226e-05,9.6856432,-0.348196,0.95079601,0.73979497,-0.071644001,-0.66719699,-0.049169,-0.38588352,-1.4632684,0.21456972
4769099129920,0.040100704,0,,0.0042754284,0.00080262454,-2.8501226e-05,9.6856432,-0.348196,0.95079601,0.73979497,-0.071644001,-0.66719699,-0.049169,-0.38588352,-1.4632684,0.21456972
4769101125056,0.04209584,0,,-8.353146e-05,-0.001270268,-0.00062542128,9.7872992,-0.369389,0.98656398,0.73979497,-0.071639001,-0.66719699,-0.049171001,-0.38578854,-1.4632707,0.21447791
4769103124640,0.044095424,0,,-8.353146e-05,-0.001270268,-0.00062542128,9.7872992,-0.369389,0.98656398,0.73979497,-0.071639001,-0.66719699,-0.049171001,-0.38578854,-1.4632707,0.21447791
4769105121600,0.046092384,0,,-0.0088553643,-0.0050707399,-0.0010249621,9.826829,-0.40641299,0.98941499,0.73978901,-0.071649,-0.667202,-0.049185,-0.3857963,-1.4632873,0.2144523
4769107126784,0.048097568,0,,-0.0088553643,-0.0050707399,-0.0010249621,9.826829,-0.40641299,0.98941499,0.73978901,-0.071649,-0.667202,-0.049185,-0.3857963,-1.4632873,0.2144523
4769109134912,0.050105696,0,,-0.0088553643,-0.0050707399,-0.0010249621,9.826829,-0.40641299,0.98941499,0.73978901,-0.071649,-0.667202,-0.049185,-0.3857963,-1.4632873,0.2144523
4769111122144,0.052092928,0,,-0.0022546686,-0.0028761282,-0.0028036795,9.7438374,-0.378876,0.98252499,0.73978102,-0.071657002,-0.66720802,-0.049199,-0.3857952,-1.463309,0.2144212
4769113150080,0.054120864,0,,-0.0022546686,-0.0028761282,-0.0028036795,9.7438374,-0.378876,0.98252499,0.73978102,-0.071657002,-0.66720802,-0.049199,-0.3857952,-1.463309,0.2144212
4769115303776,0.05627456,0,,-0.0022546686,-0.0028761282,-0.0028036795,9.7438374,-0.378876,0.98252499,0.73978102,-0.071657002,-0.66720802,-0.049199,-0.3857952,-1.463309,0.2144212
4769117144704,0.058115488,0,,-0.0052271387,-0.0037328054,-0.0028389526,9.6906443,-0.345799,0.97828901,0.73977399,-0.071661003,-0.66721499,-0.049213,-0.38573951,-1.4633328,0.21433994
4769119148672,0.060119456,0,,-0.0052271387,-0.0037328054,-0.0028389526,9.6906443,-0.345799,0.97828901,0.73977399,-0.071661003,-0.66721499,-0.049213,-0.38573951,-1.4633328,0.21433994
4769121164896,0.06213568,0,,-0.003390686,-0.00034992106,-0.0015568861,9.7598028,-0.40023601,0.99894398,0.73977,-0.071666002,-0.66721797,-0.049231,-0.38561667,-1.4633456,0.214185
4769123152160,0.064122944,0,,-0.003390686,-0.00034992106,-0.0015568861,9.7598028,-0.40023601,0.99894398,0.73977,-0.071666002,-0.66721797,-0.049231,-0.38561667,-1.4633456,0.214185
4769125141472,0.066112256,0,,-0.003390686,-0.00034992106,-0.0015568861,9.7598028,-0.40023601,0.99894398,0.73977,-0.071666002,-0.66721797,-0.049231,-0.38561667,-1.4633456,0.214185
4769127142656,0.06811344,0,,-0.00090057243,-0.0017946697,0.0028313603,9.8220577,-0.465545,1.024497,0.73977,-0.071670003,-0.66721702,-0.049233999,-0.38562569,-1.4633463,0.21418295
4769129192864,0.070163648,0,,-0.00090057243,-0.0017946697,0.0028313603,9.8220577,-0.465545,1.024497,0.73977,-0.071670003,-0.66721702,-0.049233999,-0.38562569,-1.4633463,0.21418295
4769131203008,0.072173792,0,,-0.00082609924,-0.0055513515,-0.0016221265,9.7518196,-0.471838,0.99969202,0.739766,-0.071673997,-0.66722101,-0.049226999,-0.3857996,-1.4633516,0.21436243
4769133212416,0.0741832,0,,-0.00082609924,-0.0055513515,-0.0016221265,9.7518196,-0.471838,0.99969202,0.739766,-0.071673997,-0.66722101,-0.049226999,-0.3857996,-1.4633516,0.21436243
4769135328480,0.076299264,0,,-0.00082609924,-0.0055513515,-0.0016221265,9.7518196,-0.471838,0.99969202,0.739766,-0.071673997,-0.66722101,-0.049226999,-0.3857996,-1.4633516,0.21436243
4769137134560,0.078105344,0,,0.00065851274,-0.0036156066,0.00094216365,9.6707563,-0.39788899,0.98068702,0.73975801,-0.071672,-0.66723001,-0.049222998,-0.38588462,-1.4633724,0.21445486
4769139150976,0.08012176,0,,0.00065851274,-0.0036156066,0.00094216365,9.6707563,-0.39788899,0.98068702,0.73975801,-0.071672,-0.66723001,-0.049222998,-0.38588462,-1.4633724,0.21445486
4769141128512,0.082099296,0,,-0.0026869693,0.0021634228,-0.0010261838,9.7040644,-0.305116,1.003036,0.73975897,-0.071672,-0.66723001,-0.049222,-0.38588958,-1.4633717,0.2144624
4769143166240,0.084137024,0,,-0.0026869693,0.0021634228,-0.0010261838,9.7040644,-0.305116,1.003036,0.73975897,-0.071672,-0.66723001,-0.049222,-0.38588958,-1.4633717,0.2144624
4769145144384,0.086115168,0,,-0.0026869693,0.0021634228,-0.0010261838,9.7040644,-0.305116,1.003036,0.73975897,-0.071672,-0.66723001,-0.049222,-0.38588958,-1.4633717,0.2144624
4769147131744,0.088102528,0,,-0.0029288369,0.0017166883,0.0016576788,9.8054161,-0.39874399,1.012917,0.73976302,-0.071680002,-0.66722298,-0.049238998,-0.38575559,-1.4633616,0.21429074
4769149126016,0.0900968,0,,-0.0029288369,0.0017166883,0.0016576788,9.8054161,-0.39874399,1.012917,0.73976302,-0.071680002,-0.66722298,-0.049238998,-0.38575559,-1.4633616,0.21429074
4769151142368,0.092113152,0,,-0.001669547,0.00035906658,0.0020598027,9.8436604,-0.45247099,1.0020109,0.73976499,-0.071687996,-0.66722,-0.049242001,-0.38580735,-1.4633507,0.21432862
4769153123104,0.094093888,0,,-0.001669547,0.00035906658,0.0020598027,9.8436604,-0.45247099,1.0020109,0.73976499,-0.071687996,-0.66722,-0.049242001,-0.38580735,-1.4633507,0.21432862
4769155313408,0.096284192,0,,-0.0021047624,-0.00089849548,-0.0004842765,9.809679,-0.462387,0.97312701,0.73976499,-0.071690999,-0.66722,-0.049238998,-0.38587656,-1.4633507,0.21439728
4769157137280,0.098108064,0,,-0.0021047624,-0.00089849548,-0.0004842765,9.809679,-0.462387,0.97312701,0.73976499,-0.071690999,-0.66722,-0.049238998,-0.38587656,-1.4633507,0.21439728
4769159119488,0.10009027,0,,-0.0021047624,-0.00089849548,-0.0004842765,9.809679,-0.462387,0.97312701,0.73976499,-0.071690999,-0.66722,-0.049238998,-0.38587656,-1.4633507,0.21439728
4769161119168,0.10208995,0,,0.0025243394,-0.00099305747,-0.0065411273,9.8315935,-0.39983401,0.98192298,0.73976398,-0.071684003,-0.66722202,-0.049237002,-0.38581434,-1.4633546,0.21434755
4769163140736,0.10411152,0,,0.0025243394,-0.00099305747,-0.0065411273,9.8315935,-0.39983401,0.98192298,0.73976398,-0.071684003,-0.66722202,-0.049237002,-0.38581434,-1.4633546,0.21434755
4769165115968,0.10608675,0,,0.0025243394,-0.00099305747,-0.0065411273,9.8315935,-0.39983401,0.98192298,0.73976398,-0.071684003,-0.66722202,-0.049237002,-0.38581434,-1.4633546,0.21434755
4769167120000,0.10809078,0,,0.0078857989,-0.0018659839,-0.00080154244,9.8354168,-0.330836,0.99772102,0.73976302,-0.071668997,-0.667225,-0.049236,-0.38565406,-1.4633677,0.21420963
4769169142144,0.11011293,0,,0.0078857989,-0.0018659839,-0.00080154244,9.8354168,-0.330836,0.99772102,0.73976302,-0.071668997,-0.667225,-0.049236,-0.38565406,-1.4633677,0.21420963
4769171158464,0.11212925,0,,0.010517232,0.0006598741,0.0009577843,9.7400665,-0.34335601,0.99579901,0.73976201,-0.071653001,-0.66722798,-0.049229,-0.38553355,-1.4633751,0.21412263
4769173144992,0.11411578,0,,0.010517232,0.0006598741,0.0009577843,9.7400665,-0.34335601,0.99579901,0.73976201,-0.071653001,-0.66722798,-0.049229,-0.38553355,-1.4633751,0.21412263
4769175243584,0.11621437,0,,0.010517232,0.0006598741,0.0009577843,9.7400665,-0.34335601,0.99579901,0.73976201,-0.071653001,-0.66722798,-0.049229,-0.38553355,-1.4633751,0.21412263
4769177148064,0.11811885,0,,0.010517232,0.0006598741,0.0009577843,9.7400665,-0.34335601,0.99579901,0.73976201,-0.071653001,-0.66722798,-0.049229,-0.38553355,-1.4633751,0.21412263
4769179150336,0.12012112,0,,0.010517232,0.0006598741,0.0009577843,9.7400665,-0.34335601,0.99579901,0.73976201,-0.071653001,-0.66722798,-0.049229,-0.38553355,-1.4633751,0.21412263
4769181148000,0.12211878,0,,-0.0050498835,-0.0021412746,0.00048048914,9.7072706,-0.35527399,0.97005999,0.73977202,-0.071647003,-0.66721797,-0.049231999,-0.38534566,-1.4633522,0.21393889
4769183143200,0.12411398,0,,-0.0050498835,-0.0021412746,0.00048048914,9.7072706,-0.35527399,0.97005999,0.73977202,-0.071647003,-0.66721797,-0.049231999,-0.38534566,-1.4633522,0.21393889
4769185138976,0.12610976,0,,-0.0050498835,-0.0021412746,0.00048048914,9.7072706,-0.35527399,0.97005999,0.73977202,-0.071647003,-0.66721797,-0.049231999,-0.38534566,-1.4633522,0.21393889
4769187143712,0.1281145,0,,-0.0026148174,-0.0051211625,0.003151576,9.7171078,-0.389128,0.98438901,0.73976499,-0.071662001,-0.66722298,-0.049240001,-0.38549979,-1.4633668,0.21406026
4769189134240,0.13010502,0,,-0.0026148174,-0.0051211625,0.003151576,9.7171078,-0.389128,0.98438901,0.73976499,-0.071662001,-0.66722298,-0.049240001,-0.38549979,-1.4633668,0.21406026
4769191139424,0.13211021,0,,-5.4436819e-05,-0.0042133468,0.0015252084,9.7179689,-0.362551,0.96484298,0.739757,-0.071667999,-0.66723102,-0.049240999,-0.38563392,-1.4633861,0.21418458
4769193141120,0.1341119,0,,-5.4436819e-05,-0.0042133468,0.0015252084,9.7179689,-0.362551,0.96484298,0.739757,-0.071667999,-0.66723102,-0.049240999,-0.38563392,-1.4633861,0.21418458
4769195327424,0.13629821,0,,-5.4436819e-05,-0.0042133468,0.0015252084,9.7179689,-0.362551,0.96484298,0.739757,-0.071667999,-0.66723102,-0.049240999,-0.38563392,-1.4633861,0.21418458
4769197131520,0.1381023,0,,-0.0012698666,-0.0020913757,-0.00033040827,9.7271147,-0.35247499,0.97512501,0.73975098,-0.071672998,-0.66723698,-0.049244002,-0.38570975,-1.4634012,0.21424881
4769199142560,0.14011334,0,,-0.0012698666,-0.0020913757,-0.00033040827,9.7271147,-0.35247499,0.97512501,0.73975098,-0.071672998,-0.66723698,-0.049244002,-0.38570975,-1.4634012,0.21424881
4769201016352,0.14198714,0,,0.0011415849,-0.00092118476,0.0019889249,9.7755976,-0.414415,0.97828197,0.739748,-0.071676999,-0.66723901,-0.049249001,-0.38572207,-1.4634077,0.214248
4769203129440,0.14410022,0,,0.0011415849,-0.00092118476,0.0019889249,9.7755976,-0.414415,0.97828197,0.739748,-0.071676999,-0.66723901,-0.049249001,-0.38572207,-1.4634077,0.214248
4769205171456,0.14614224,0,,0.0011415849,-0.00092118476,0.0019889249,9.7755976,-0.414415,0.97828197,0.739748,-0.071676999,-0.66723901,-0.049249001,-0.38572207,-1.4634077,0.214248
4769207127776,0.14809856,0,,-0.001956549,-0.0018460522,0.0012000011,9.8118353,-0.41187799,0.99424899,0.739748,-0.071680002,-0.66724002,-0.049245,-0.38580269,-1.4634085,0.21433085
4769209143840,0.15011462,0,,-0.001956549,-0.0018460522,0.0012000011,9.8118353,-0.41187799,0.99424899,0.739748,-0.071680002,-0.66724002,-0.049245,-0.38580269,-1.4634085,0.21433085
4769211159200,0.15212998,0,,-0.0036114701,0.00024127432,0.0018077772,9.8378325,-0.37420899,1.0097131,0.73974502,-0.071685001,-0.66724199,-0.049249001,-0.38585239,-1.4634117,0.21436761
4769213120096,0.15409088,0,,-0.0036114701,0.00024127432,0.0018077772,9.8378325,-0.37420899,1.0097131,0.73974502,-0.071685001,-0.66724199,-0.049249001,-0.38585239,-1.4634117,0.21436761
4769215309600,0.15628038,0,,0.0010520321,0.0044558082,0.0012792914,9.8332996,-0.363823,0.992814,0.73975199,-0.071693003,-0.66723299,-0.049254,-0.38584177,-1.4633912,0.21433856
4769217139360,0.15811014,0,,0.0010520321,0.0044558082,0.0012792914,9.8332996,-0.363823,0.992814,0.73975199,-0.071693003,-0.66723299,-0.049254,-0.38584177,-1.4633912,0.21433856
4769219117632,0.16008842,0,,0.0010520321,0.0044558082,0.0012792914,9.8332996,-0.363823,0.992814,0.73975199,-0.071693003,-0.66723299,-0.049254,-0.38584177,-1.4633912,0.21433856
4769221134080,0.16210486,0,,0.0015208974,0.002999872,-0.00015508996,9.802412,-0.428794,0.999632,0.73975998,-0.071689002,-0.667225,-0.049254999,-0.38569121,-1.4633712,0.2141922
4769223142624,0.16411341,0,,0.0015208974,0.002999872,-0.00015508996,9.802412,-0.428794,0.999632,0.73975998,-0.071689002,-0.667225,-0.049254999,-0.38569121,-1.4633712,0.2141922
4769225111904,0.16608269,0,,0.0015208974,0.002999872,-0.00015508996,9.802412,-0.428794,0.999632,0.73975998,-0.071689002,-0.667225,-0.049254999,-0.38569121,-1.4633712,0.2141922
4769227143648,0.16811443,0,,0.0014924136,-0.00064598126,-0.00028457593,9.7631674,-0.470182,0.99768502,0.73976302,-0.071686,-0.66722101,-0.049254,-0.3856446,-1.4633639,0.21415086
4769229155808,0.17012659,0,,0.0014924136,-0.00064598126,-0.00028457593,9.7631674,-0.470182,0.99768502,0.73976302,-0.071686,-0.66722101,-0.049254,-0.3856446,-1.4633639,0.21415086
4769231147392,0.17211818,0,,0.0020001298,-0.00143117,-0.00059198079,9.7007208,-0.405857,0.97975701,0.73976302,-0.071681,-0.66722298,-0.049242999,-0.38571744,-1.4633633,0.21424708
4769233152704,0.17412349,0,,0.0020001298,-0.00143117,-0.00059198079,9.7007208,-0.405857,0.97975701,0.73976302,-0.071681,-0.66722298,-0.049242999,-0.38571744,-1.4633633,0.21424708
4769235311104,0.17628189,0,,0.0020001298,-0.00143117,-0.00059198079,9.7007208,-0.405857,0.97975701,0.73976302,-0.071681,-0.66722298,-0.049242999,-0.38571744,-1.4633633,0.21424708
4769237215392,0.17818618,0,,0.00011690215,-0.0035411335,-0.0047694614,9.7205172,-0.376894,0.98898798,0.73975897,-0.071673997,-0.66722798,-0.049245,-0.38564027,-1.4633783,0.21417719
4769239221536,0.18019232,0,,0.00011690215,-0.0035411335,-0.0047694614,9.7205172,-0.376894,0.98898798,0.73975897,-0.071673997,-0.66722798,-0.049245,-0.38564027,-1.4633783,0.21417719
4769241241568,0.18221235,0,,-0.0045470714,-0.0073019165,-0.00014648548,9.7519445,-0.41819301,0.995637,0.73974901,-0.071675003,-0.667238,-0.049256999,-0.38559427,-1.4634107,0.21411201
4769243197280,0.18416806,0,,-0.0045470714,-0.0073019165,-0.00014648548,9.7519445,-0.41819301,0.995637,0.73974901,-0.071675003,-0.667238,-0.049256999,-0.38559427,-1.4634107,0.21411201
4769245172640,0.18614342,0,,-0.0045470714,-0.0073019165,-0.00014648548,9.7519445,-0.41819301,0.995637,0.73974901,-0.071675003,-0.667238,-0.049256999,-0.38559427,-1.4634107,0.21411201
4769247166336,0.18813712,0,,-0.00047855181,-0.0073759882,-8.0250241e-05,9.7346964,-0.370855,0.98858601,0.73973697,-0.071679004,-0.66725099,-0.049258001,-0.38573588,-1.4634424,0.21424668
4769249142656,0.19011344,0,,-0.00047855181,-0.0073759882,-8.0250241e-05,9.7346964,-0.370855,0.98858601,0.73973697,-0.071679004,-0.66725099,-0.049258001,-0.38573588,-1.4634424,0.21424668
4769251145312,0.1921161,0,,0.00044970154,-0.0037035887,0.0026448719,9.6986609,-0.347756,0.99939698,0.73972899,-0.071681999,-0.66725999,-0.049258001,-0.38582426,-1.4634668,0.21433142
4769253150528,0.19412131,0,,0.00044970154,-0.0037035887,0.0026448719,9.6986609,-0.347756,0.99939698,0.73972899,-0.071681999,-0.66725999,-0.049258001,-0.38582426,-1.4634668,0.21433142
4769255350944,0.19632173,0,,0.00044970154,-0.0037035887,0.0026448719,9.6986609,-0.347756,0.99939698,0.73972899,-0.071681999,-0.66725999,-0.049258001,-0.38582426,-1.4634668,0.21433142
4769257136480,0.19810726,0,,0.00048000046,-1.5463617e-05,0.0022062357,9.7715435,-0.38805199,0.98241103,0.73972601,-0.071686998,-0.667261,-0.049263,-0.38585772,-1.4634692,0.21435058
4769259149920,0.2001207,0,,0.00048000046,-1.5463617e-05,0.0022062357,9.7715435,-0.38805199,0.98241103,0.73972601,-0.071686998,-0.667261,-0.049263,-0.38585772,-1.4634692,0.21435058
4769261139072,0.20210986,0,,0.0048291865,0.00051202724,-0.00047802822,9.8620024,-0.386621,1.006584,0.73972601,-0.071686,-0.66726202,-0.049258001,-0.38589827,-1.4634712,0.21439991
4769263138496,0.20410928,0,,0.0048291865,0.00051202724,-0.00047802822,9.8620024,-0.386621,1.006584,0.73972601,-0.071686,-0.66726202,-0.049258001,-0.38589827,-1.4634712,0.21439991
4769265149408,0.20612019,0,,0.0048291865,0.00051202724,-0.00047802822,9.8620024,-0.386621,1.006584,0.73972601,-0.071686,-0.66726202,-0.049258001,-0.38589827,-1.4634712,0.21439991
4769267216256,0.20818704,0,,0.0096125229,0.0057461825,0.00033754666,9.82022,-0.401409,1.0012929,0.73973501,-0.071672,-0.66725498,-0.049249999,-0.3857475,-1.463449,0.21428052
4769269182752,0.21015354,0,,0.0096125229,0.0057461825,0.00033754666,9.82022,-0.401409,1.0012929,0.73973501,-0.071672,-0.66725498,-0.049249999,-0.3857475,-1.463449,0.21428052
4769271202272,0.21217306,0,,0.0050297246,0.0042422497,0.00068376765,9.7692318,-0.44460201,0.94618303,0.739748,-0.071659997,-0.66724199,-0.049235001,-0.38566434,-1.4634146,0.21423525
4769273140000,0.21411078,0,,0.0050297246,0.0042422497,0.00068376765,9.7692318,-0.44460201,0.94618303,0.739748,-0.071659997,-0.66724199,-0.049235001,-0.38566434,-1.4634146,0.21423525
4769275501344,0.21647213,0,,0.0050297246,0.0042422497,0.00068376765,9.7692318,-0.44460201,0.94618303,0.739748,-0.071659997,-0.66724199,-0.049235001,-0.38566434,-1.4634146,0.21423525
4769277159456,0.21813024,0,,-0.0038872495,-0.0016150928,-0.0011314969,9.8096657,-0.45208299,0.95094401,0.73974901,-0.071657002,-0.66724199,-0.049231,-0.38567213,-1.4634134,0.21425198
4769279128384,0.22009917,0,,-0.0038872495,-0.0016150928,-0.0011314969,9.8096657,-0.45208299,0.95094401,0.73974901,-0.071657002,-0.66724199,-0.049231,-0.38567213,-1.4634134,0.21425198
4769281121408,0.22209219,0,,-0.0016731424,0.0007137524,-7.9185586e-05,9.8400545,-0.36562899,1.013831,0.73974597,-0.071663998,-0.66724402,-0.049236,-0.3857231,-1.4634178,0.21428698
4769283126880,0.22409766,0,,-0.0016731424,0.0007137524,-7.9185586e-05,9.8400545,-0.36562899,1.013831,0.73974597,-0.071663998,-0.66724402,-0.049236,-0.3857231,-1.4634178,0.21428698
4769285178720,0.2261495,0,,-0.0016731424,0.0007137524,-7.9185586e-05,9.8400545,-0.36562899,1.013831,0.73974597,-0.071663998,-0.66724402,-0.049236,-0.3857231,-1.4634178,0.21428698
4769287155680,0.22812646,0,,0.0033920124,-0.0033039606,-0.00075155622,9.7358837,-0.35124001,0.97930402,0.73974597,-0.071661003,-0.66724497,-0.049240001,-0.38564746,-1.4634229,0.2142098
4769289146112,0.2301169,0,,0.0033920124,-0.0033039606,-0.00075155622,9.7358837,-0.35124001,0.97930402,0.73974597,-0.071661003,-0.66724497,-0.049240001,-0.38564746,-1.4634229,0.2142098
4769291159392,0.23213018,0,,-0.0012053942,-0.0024224995,0.0016049001,9.6507835,-0.29870501,0.96127397,0.73974198,-0.071661003,-0.66724801,-0.049242001,-0.38564257,-1.4634317,0.21420078
4769293143648,0.23411443,0,,-0.0012053942,-0.0024224995,0.0016049001,9.6507835,-0.29870501,0.96127397,0.73974198,-0.071661003,-0.66724801,-0.049242001,-0.38564257,-1.4634317,0.21420078
4769295355328,0.23632611,0,,-0.0012053942,-0.0024224995,0.0016049001,9.6507835,-0.29870501,0.96127397,0.73974198,-0.071661003,-0.66724801,-0.049242001,-0.38564257,-1.4634317,0.21420078
4769297143616,0.2381144,0,,8.8313658e-05,0.0011466988,0.0039613913,9.6655436,-0.305345,0.98106098,0.73974001,-0.071670003,-0.66724801,-0.049252998,-0.3856449,-1.4634358,0.21417576
4769299140096,0.24011088,0,,8.8313658e-05,0.0011466988,0.0039613913,9.6655436,-0.305345,0.98106098,0.73974001,-0.071670003,-0.66724801,-0.049252998,-0.3856449,-1.4634358,0.21417576
4769301149248,0.24212003,0,,0.0022350338,0.00080929174,0.002787919,9.7411327,-0.402495,0.99912298,0.73974401,-0.071673997,-0.667243,-0.049256999,-0.38561614,-1.4634241,0.21413654
4769303145536,0.24411632,0,,0.0022350338,0.00080929174,0.002787919,9.7411327,-0.402495,0.99912298,0.73974401,-0.071673997,-0.667243,-0.049256999,-0.38561614,-1.4634241,0.21413654
4769305136928,0.24610771,0,,0.0022350338,0.00080929174,0.002787919,9.7411327,-0.402495,0.99912298,0.73974401,-0.071673997,-0.667243,-0.049256999,-0.38561614,-1.4634241,0.21413654
4769307144608,0.24811539,0,,-0.0024117831,-0.00090008375,0.0039688962,9.7719727,-0.44400999,1.01029,0.73974401,-0.071681999,-0.667243,-0.049252,-0.38576994,-1.4634185,0.21428533
4769309160416,0.2501312,0,,-0.0024117831,-0.00090008375,0.0039688962,9.7719727,-0.44400999,1.01029,0.73974401,-0.071681999,-0.667243,-0.049252,-0.38576994,-1.4634185,0.21428533
4769311154400,0.25212518,0,,0.00018832102,0.0018387917,0.0011431558,9.7865953,-0.46056598,0.98896599,0.739748,-0.071687996,-0.66723901,-0.049247,-0.38588535,-1.4634034,0.21440013
4769313136576,0.25410736,0,,0.00018832102,0.0018387917,0.0011431558,9.7865953,-0.46056598,0.98896599,0.739748,-0.071687996,-0.66723901,-0.049247,-0.38588535,-1.4634034,0.21440013
4769315351552,0.25632234,0,,0.00018832102,0.0018387917,0.0011431558,9.7865953,-0.46056598,0.98896599,0.739748,-0.071687996,-0.66723901,-0.049247,-0.38588535,-1.4634034,0.21440013
4769317339584,0.25831037,0,,0.00066319018,0.0036446662,-0.0035759179,9.8675804,-0.46151701,0.98492497,0.73975301,-0.071682997,-0.667234,-0.049242999,-0.38583495,-1.4633894,0.21436156
4769319182016,0.2601528,0,,0.00066319018,0.0036446662,-0.0035759179,9.8675804,-0.46151701,0.98492497,0.73975301,-0.071682997,-0.667234,-0.049242999,-0.38583495,-1.4633894,0.21436156
4769321146144,0.26211693,0,,0.0011584798,0.0029783519,-0.0014624986,9.9049177,-0.48164201,1.012112,0.73975998,-0.071677998,-0.66722697,-0.049240001,-0.38574916,-1.4633727,0.2142875
4769323188000,0.26415878,0,,0.0011584798,0.0029783519,-0.0014624986,9.9049177,-0.48164201,1.012112,0.73975998,-0.071677998,-0.66722697,-0.049240001,-0.38574916,-1.4633727,0.2142875
4769325174144,0.26614493,0,,0.0011584798,0.0029783519,-0.0014624986,9.9049177,-0.48164201,1.012112,0.73975998,-0.071677998,-0.66722697,-0.049240001,-0.38574916,-1.4633727,0.2142875
4769327129216,0.2681,0,,0.00087304857,-0.0030429814,-0.0049671023,9.8557024,-0.40902501,1.00683,0.73976201,-0.071667001,-0.66722602,-0.049236,-0.38563615,-1.4633707,0.21419528
4769329120736,0.27009152,0,,0.00087304857,-0.0030429814,-0.0049671023,9.8557024,-0.40902501,1.00683,0.73976201,-0.071667001,-0.66722602,-0.049236,-0.38563615,-1.4633707,0.21419528
4769331147776,0.27211856,0,,0.0031968672,-0.0026994833,-0.00017428858,9.7072926,-0.331806,0.98683697,0.73975801,-0.071659997,-0.66723198,-0.049235001,-0.38558215,-1.4633885,0.21415286
4769333156608,0.27412739,0,,0.0031968672,-0.0026994833,-0.00017428858,9.7072926,-0.331806,0.98683697,0.73975801,-0.071659997,-0.66723198,-0.049235001,-0.38558215,-1.4633885,0.21415286
4769335197696,0.27616848,0,,0.0056727563,0.0058109343,0.00060726984,9.660697,-0.341187,1.002471,0.73976099,-0.071653999,-0.667229,-0.049237002,-0.3854683,-1.4633827,0.21404515
4769337150304,0.27812109,0,,0.0056727563,0.0058109343,0.00060726984,9.660697,-0.341187,1.002471,0.73976099,-0.071653999,-0.667229,-0.049237002,-0.3854683,-1.4633827,0.21404515
4769339149920,0.2801207,0,,0.0056727563,0.0058109343,0.00060726984,9.660697,-0.341187,1.002471,0.73976099,-0.071653999,-0.667229,-0.049237002,-0.3854683,-1.4633827,0.21404515
4769341145856,0.28211664,0,,0.0054987296,0.0054370847,0.0017498148,9.6922331,-0.453269,0.98442197,0.73977399,-0.071644999,-0.66721499,-0.049233999,-0.38527143,-1.4633478,0.21386472
4769343180640,0.28415142,0,,0.0054987296,0.0054370847,0.0017498148,9.6922331,-0.453269,0.98442197,0.73977399,-0.071644999,-0.66721499,-0.049233999,-0.38527143,-1.4633478,0.21386472
4769345150016,0.2861208,0,,0.0041092903,0.00023357742,0.0052163003,9.724947,-0.39991301,0.98297602,0.73978102,-0.071643002,-0.66720897,-0.049215999,-0.38540618,-1.4633229,0.21402875
4769347177504,0.28814829,0,,0.0041092903,0.00023357742,0.0052163003,9.724947,-0.39991301,0.98297602,0.73978102,-0.071643002,-0.66720897,-0.049215999,-0.38540618,-1.4633229,0.21402875
4769349144704,0.29011549,0,,0.0041092903,0.00023357742,0.0052163003,9.724947,-0.39991301,0.98297602,0.73978102,-0.071643002,-0.66720897,-0.049215999,-0.38540618,-1.4633229,0.21402875
4769351157952,0.29212874,0,,0.0031929577,-0.0018119485,0.0017691356,9.7405453,-0.420683,0.98469502,0.73978001,-0.071640998,-0.667211,-0.049205001,-0.38552955,-1.4633234,0.21416888
4769353134112,0.2941049,0,,0.0031929577,-0.0018119485,0.0017691356,9.7405453,-0.420683,0.98469502,0.73978001,-0.071640998,-0.667211,-0.049205001,-0.38552955,-1.4633234,0.21416888
4769355300896,0.29627168,0,,0.0031929577,-0.0018119485,0.0017691356,9.7405453,-0.420683,0.98469502,0.73978001,-0.071640998,-0.667211,-0.049205001,-0.38552955,-1.4633234,0.21416888
4769357132288,0.29810307,0,,-0.0026077138,-0.00025457372,0.001245973,9.7557936,-0.434928,0.95734698,0.73978102,-0.071643002,-0.66720998,-0.049196001,-0.38565023,-1.4633155,0.21430114
4769359134912,0.3001057,0,,-0.0026077138,-0.00025457372,0.001245973,9.7557936,-0.434928,0.95734698,0.73978102,-0.071643002,-0.66720998,-0.049196001,-0.38565023,-1.4633155,0.21430114
4769361130912,0.3021017,0,,-0.0027068486,-0.0019400032,-0.0036650168,9.7710094,-0.36705101,0.98975301,0.739779,-0.071644999,-0.66721201,-0.049199998,-0.38565113,-1.4633246,0.21429219
4769363130912,0.3041017,0,,-0.0027068486,-0.0019400032,-0.0036650168,9.7710094,-0.36705101,0.98975301,0.739779,-0.071644999,-0.66721201,-0.049199998,-0.38565113,-1.4633246,0.21429219
4769365189600,0.30616038,0,,-0.00072495744,-0.0034667302,-0.0026763752,9.7995882,-0.33826599,0.97231901,0.73977399,-0.071645997,-0.66721702,-0.049213,-0.38555592,-1.4633415,0.21417757
4769367177792,0.30814858,0,,-0.00072495744,-0.0034667302,-0.0026763752,9.7995882,-0.33826599,0.97231901,0.73977399,-0.071645997,-0.66721702,-0.049213,-0.38555592,-1.4633415,0.21417757
4769369125856,0.31009664,0,,-0.00072495744,-0.0034667302,-0.0026763752,9.7995882,-0.33826599,0.97231901,0.73977399,-0.071645997,-0.66721702,-0.049213,-0.38555592,-1.4633415,0.21417757
4769371124704,0.31209549,0,,0.0026667933,-0.0023749569,0.00081293948,9.8616085,-0.34834,0.97206098,0.73976797,-0.071643002,-0.66722202,-0.049222998,-0.38542872,-1.4633624,0.21404145
4769373121696,0.31409248,0,,0.0026667933,-0.0023749569,0.00081293948,9.8616085,-0.34834,0.97206098,0.73976797,-0.071643002,-0.66722202,-0.049222998,-0.38542872,-1.4633624,0.21404145
4769375438688,0.31640947,0,,0.0026667933,-0.0023749569,0.00081293948,9.8616085,-0.34834,0.97206098,0.73976797,-0.071643002,-0.66722202,-0.049222998,-0.38542872,-1.4633624,0.21404145
4769377119040,0.31808982,0,,0.0029371099,0.00058822831,0.0048941125,9.8628149,-0.36407399,0.99598402,0.73976701,-0.071648002,-0.66722399,-0.049219001,-0.38554846,-1.4633616,0.2141583
4769379138976,0.32010976,0,,0.0029371099,0.00058822831,0.0048941125,9.8628149,-0.36407399,0.99598402,0.73976701,-0.071648002,-0.66722399,-0.049219001,-0.38554846,-1.4633616,0.2141583
4769381111488,0.32208227,0,,-0.0014597584,-0.0046836608,0.0016029278,9.8075657,-0.35761401,0.99215901,0.73976398,-0.071654998,-0.66722602,-0.049215999,-0.38569593,-1.4633639,0.21430094
4769383109728,0.32408051,0,,-0.0014597584,-0.0046836608,0.0016029278,9.8075657,-0.35761401,0.99215901,0.73976398,-0.071654998,-0.66722602,-0.049215999,-0.38569593,-1.4633639,0.21430094
4769385141792,0.32611258,0,,-0.0014597584,-0.0046836608,0.0016029278,9.8075657,-0.35761401,0.99215901,0.73976398,-0.071654998,-0.66722602,-0.049215999,-0.38569593,-1.4633639,0.21430094
4769387142688,0.32811347,0,,-0.0037653558,-0.0012057782,0.0018537666,9.711216,-0.36191899,0.95632899,0.73975801,-0.071664996,-0.66723102,-0.049224999,-0.38576235,-1.4633795,0.21434038
4769389139424,0.33011021,0,,-0.0037653558,-0.0012057782,0.0018537666,9.711216,-0.36191899,0.95632899,0.73975801,-0.071664996,-0.66723102,-0.049224999,-0.38576235,-1.4633795,0.21434038
4769391126720,0.3320975,0,,0.0010008765,0.0027440242,0.0047408028,9.7013817,-0.41111898,0.97281301,0.73976201,-0.071673997,-0.66722602,-0.049228001,-0.38581977,-1.4633651,0.21438091
4769393102656,0.33407344,0,,0.0010008765,0.0027440242,0.0047408028,9.7013817,-0.41111898,0.97281301,0.73976201,-0.071673997,-0.66722602,-0.049228001,-0.38581977,-1.4633651,0.21438091
4769395302368,0.33627315,0,,0.0010008765,0.0027440242,0.0047408028,9.7013817,-0.41111898,0.97281301,0.73976201,-0.071673997,-0.66722602,-0.049228001,-0.38581977,-1.4633651,0.21438091
4769397099712,0.3380705,0,,0.00063732442,0.00094582881,0.0020317028,9.7093859,-0.42770699,0.97086298,0.73976499,-0.071675003,-0.66722298,-0.049219001,-0.38591704,-1.4633522,0.21448916
4769399100896,0.34007168,0,,0.00063732442,0.00094582881,0.0020317028,9.7093859,-0.42770699,0.97086298,0.73976499,-0.071675003,-0.66722298,-0.049219001,-0.38591704,-1.4633522,0.21448916
4769401224352,0.34219514,0,,0.0038455362,-0.0016925504,0.0014845596,9.7677259,-0.47062901,1.0013289,0.73976701,-0.071672998,-0.66722202,-0.049208999,-0.38600067,-1.4633463,0.21459023
4769403145952,0.34411674,0,,0.0038455362,-0.0016925504,0.0014845596,9.7677259,-0.47062901,1.0013289,0.73976701,-0.071672998,-0.66722202,-0.049208999,-0.38600067,-1.4633463,0.21459023
4769405252544,0.34622333,0,,0.0038455362,-0.0016925504,0.0014845596,9.7677259,-0.47062901,1.0013289,0.73976701,-0.071672998,-0.66722202,-0.049208999,-0.38600067,-1.4633463,0.21459023
4769407181120,0.3481519,0,,0.00089950776,-0.003286804,-0.00049947833,9.7574234,-0.40969899,1.010833,0.73976499,-0.071667001,-0.66722602,-0.049197,-0.38608409,-1.4633512,0.21469897
4769409160192,0.35013098,0,,0.00089950776,-0.003286804,-0.00049947833,9.7574234,-0.40969899,1.010833,0.73976499,-0.071667001,-0.66722602,-0.049197,-0.38608409,-1.4633512,0.21469897
4769411148416,0.3521192,0,,-0.0035002927,-0.0049121944,-0.00018289306,9.7344437,-0.32956901,0.99878901,0.73975897,-0.071667999,-0.66723198,-0.049199998,-0.38610686,-1.4633677,0.21471605
4769413146208,0.35411699,0,,-0.0035002927,-0.0049121944,-0.00018289306,9.7344437,-0.32956901,0.99878901,0.73975897,-0.071667999,-0.66723198,-0.049199998,-0.38610686,-1.4633677,0.21471605
4769415328736,0.35629952,0,,-0.0010463074,-0.0037089818,0.0015319802,9.7520027,-0.37946299,1.012412,0.73975199,-0.071679004,-0.667238,-0.049210999,-0.38616615,-1.4633844,0.21474459
4769417142464,0.35811325,0,,-0.0010463074,-0.0037089818,0.0015319802,9.7520027,-0.37946299,1.012412,0.73975199,-0.071679004,-0.667238,-0.049210999,-0.38616615,-1.4633844,0.21474459
4769419143520,0.3601143,0,,-0.0010463074,-0.0037089818,0.0015319802,9.7520027,-0.37946299,1.012412,0.73975199,-0.071679004,-0.667238,-0.049210999,-0.38616615,-1.4633844,0.21474459
4769421152512,0.3621233,0,,0.0059272603,-0.00068748522,0.0036553652,9.8398018,-0.42588899,1.027977,0.73975003,-0.071677998,-0.66724098,-0.049203999,-0.38626119,-1.4633894,0.21484982
4769423159648,0.36413043,0,,0.0059272603,-0.00068748522,0.0036553652,9.8398018,-0.42588899,1.027977,0.73975003,-0.071677998,-0.66724098,-0.049203999,-0.38626119,-1.4633894,0.21484982
4769425128672,0.36609946,0,,0.0004967207,0.0020041092,0.0017078221,9.8560982,-0.46524301,1.008527,0.73975497,-0.071676001,-0.66723597,-0.049192,-0.38634734,-1.4633712,0.21495603
4769427133632,0.36810442,0,,0.0004967207,0.0020041092,0.0017078221,9.8560982,-0.46524301,1.008527,0.73975497,-0.071676001,-0.66723597,-0.049192,-0.38634734,-1.4633712,0.21495603
4769429128064,0.37009885,0,,0.0004967207,0.0020041092,0.0017078221,9.8560982,-0.46524301,1.008527,0.73975497,-0.071676001,-0.66723597,-0.049192,-0.38634734,-1.4633712,0.21495603
4769431152864,0.37212365,0,,0.001997669,-0.00030674161,0.0014427241,9.8263054,-0.489674,0.99925202,0.73975801,-0.071676001,-0.66723299,-0.049180001,-0.38644844,-1.4633583,0.21507443
4769433263456,0.37423424,0,,0.001997669,-0.00030674161,0.0014427241,9.8263054,-0.489674,0.99925202,0.73975801,-0.071676001,-0.66723299,-0.049180001,-0.38644844,-1.4633583,0.21507443
4769435320064,0.37629085,0,,0.001997669,-0.00030674161,0.0014427241,9.8263054,-0.489674,0.99925202,0.73975801,-0.071676001,-0.66723299,-0.049180001,-0.38644844,-1.4633583,0.21507443
4769437115520,0.3780863,0,,-0.0010719463,-0.0064805471,-0.0027521749,9.7235708,-0.39218399,0.99378997,0.73975497,-0.071670003,-0.667238,-0.049169999,-0.38651955,-1.4633683,0.21516839
4769439146272,0.38011706,0,,-0.0010719463,-0.0064805471,-0.0027521749,9.7235708,-0.39218399,0.99378997,0.73975497,-0.071670003,-0.667238,-0.049169999,-0.38651955,-1.4633683,0.21516839
4769441128192,0.38209898,0,,-0.0049029966,-0.0048764326,0.0024857329,9.7180109,-0.44124001,0.98594898,0.73974597,-0.071676001,-0.66724801,-0.049176,-0.38660737,-1.4633929,0.21523873
4769443114272,0.38408506,0,,-0.0049029966,-0.0048764326,0.0024857329,9.7180109,-0.44124001,0.98594898,0.73974597,-0.071676001,-0.66724801,-0.049176,-0.38660737,-1.4633929,0.21523873
4769445142944,0.38611373,0,,-0.0049029966,-0.0048764326,0.0024857329,9.7180109,-0.44124001,0.98594898,0.73974597,-0.071676001,-0.66724801,-0.049176,-0.38660737,-1.4633929,0.21523873
4769447124224,0.38809501,0,,-0.0062631489,-0.0025844486,0.0011932816,9.7980356,-0.403759,0.983854,0.73974198,-0.071690001,-0.66724998,-0.049178001,-0.38679342,-1.463399,0.21540276
4769449115104,0.39008589,0,,-0.0062631489,-0.0025844486,0.0011932816,9.7980356,-0.403759,0.983854,0.73974198,-0.071690001,-0.66724998,-0.049178001,-0.38679342,-1.463399,0.21540276
4769451103168,0.39207395,0,,-0.00047443285,-0.0012866916,-0.0011184418,9.8152733,-0.364393,0.99043,0.73973799,-0.071698003,-0.66725302,-0.049185,-0.38684326,-1.4634058,0.21543156
4769453098976,0.39406976,0,,-0.00047443285,-0.0012866916,-0.0011184418,9.8152733,-0.364393,0.99043,0.73973799,-0.071698003,-0.66725302,-0.049185,-0.38684326,-1.4634058,0.21543156
4769455300448,0.39627123,0,,-0.00047443285,-0.0012866916,-0.0011184418,9.8152733,-0.364393,0.99043,0.73973799,-0.071698003,-0.66725302,-0.049185,-0.38684326,-1.4634058,0.21543156
4769457098240,0.39806902,0,,-0.0029613176,-0.0035061046,-0.0022564139,9.7290201,-0.33672801,0.97941601,0.73973399,-0.071699001,-0.66725701,-0.049194001,-0.38679469,-1.4634202,0.21536854
4769459112800,0.40008358,0,,-0.0029613176,-0.0035061046,-0.0022564139,9.7290201,-0.33672801,0.97941601,0.73973399,-0.071699001,-0.66725701,-0.049194001,-0.38679469,-1.4634202,0.21536854
4769461147008,0.40211779,0,,-0.0024229185,-0.0038692553,0.00098639027,9.7183399,-0.32529199,0.965119,0.73972702,-0.071704999,-0.66726297,-0.049208,-0.38674758,-1.4634419,0.21529342
4769463128640,0.40409942,0,,-0.0024229185,-0.0038692553,0.00098639027,9.7183399,-0.32529199,0.965119,0.73972702,-0.071704999,-0.66726297,-0.049208,-0.38674758,-1.4634419,0.21529342
4769465131136,0.40610192,0,,-0.0024229185,-0.0038692553,0.00098639027,9.7183399,-0.32529199,0.965119,0.73972702,-0.071704999,-0.66726297,-0.049208,-0.38674758,-1.4634419,0.21529342
4769467238112,0.4082089,0,,-0.0027646364,0.00053632222,0.0037049499,9.7955847,-0.37558699,0.98303998,0.73972499,-0.071713999,-0.66726297,-0.049217001,-0.38676726,-1.4634428,0.21528743
4769469123680,0.41009446,0,,-0.0027646364,0.00053632222,0.0037049499,9.7955847,-0.37558699,0.98303998,0.73972499,-0.071713999,-0.66726297,-0.049217001,-0.38676726,-1.4634428,0.21528743
4769471149664,0.41212045,0,,-0.0026309792,-0.0027408128,0.0031999389,9.8316822,-0.409073,1.01047,0.73972398,-0.071726002,-0.66726398,-0.049219001,-0.38691822,-1.4634412,0.21541881
4769473121504,0.41409229,0,,-0.0026309792,-0.0027408128,0.0031999389,9.8316822,-0.409073,1.01047,0.73972398,-0.071726002,-0.66726398,-0.049219001,-0.38691822,-1.4634412,0.21541881
4769475303104,0.41627389,0,,-0.0012997991,-0.0032781646,-5.5763268e-05,9.7353821,-0.40096,0.969594,0.739721,-0.071731001,-0.66726601,-0.049219001,-0.38700245,-1.4634463,0.21549484
4769477158688,0.41812947,0,,-0.0012997991,-0.0032781646,-5.5763268e-05,9.7353821,-0.40096,0.969594,0.739721,-0.071731001,-0.66726601,-0.049219001,-0.38700245,-1.4634463,0.21549484
4769479120128,0.42009091,0,,-0.0012997991,-0.0032781646,-5.5763268e-05,9.7353821,-0.40096,0.969594,0.739721,-0.071731001,-0.66726601,-0.049219001,-0.38700245,-1.4634463,0.21549484
4769481113088,0.42208387,0,,-0.0012997991,-0.0032781646,-5.5763268e-05,9.7353821,-0.40096,0.969594,0.739721,-0.071731001,-0.66726601,-0.049219001,-0.38700245,-1.4634463,0.21549484
4769483131200,0.42410198,0,,-0.0012997991,-0.0032781646,-5.5763268e-05,9.7353821,-0.40096,0.969594,0.739721,-0.071731001,-0.66726601,-0.049219001,-0.38700245,-1.4634463,0.21549484
4769485110240,0.42608102,0,,0.00031377528,-0.0013163447,-0.0011625987,9.7610416,-0.357227,0.96354997,0.73970997,-0.071744002,-0.66727602,-0.049238,-0.38702632,-1.4634785,0.21547395
4769487169632,0.42814042,0,,0.00031377528,-0.0013163447,-0.0011625987,9.7610416,-0.357227,0.96354997,0.73970997,-0.071744002,-0.66727602,-0.049238,-0.38702632,-1.4634785,0.21547395
4769489169152,0.43013994,0,,0.00031377528,-0.0013163447,-0.0011625987,9.7610416,-0.357227,0.96354997,0.73970997,-0.071744002,-0.66727602,-0.049238,-0.38702632,-1.4634785,0.21547395
4769491127456,0.43209824,0,,0.0075388624,0.0017109637,0.0015848811,9.7665577,-0.38452199,0.98626399,0.73970902,-0.071740001,-0.66727698,-0.049237002,-0.38699479,-1.4634812,0.21544992
4769493141984,0.43411277,0,,0.0075388624,0.0017109637,0.0015848811,9.7665577,-0.38452199,0.98626399,0.73970902,-0.071740001,-0.66727698,-0.049237002,-0.38699479,-1.4634812,0.21544992
4769495288576,0.43625936,0,,0.0075388624,0.0017109637,0.0015848811,9.7665577,-0.38452199,0.98626399,0.73970902,-0.071740001,-0.66727698,-0.049237002,-0.38699479,-1.4634812,0.21544992
4769497102944,0.43807373,0,,0.0047424782,0.0035147615,0.0021258808,9.7222347,-0.35427499,1.010213,0.73971599,-0.071731001,-0.66727,-0.049224999,-0.38696237,-1.4634612,0.2154459
4769499129440,0.44010022,0,,0.0047424782,0.0035147615,0.0021258808,9.7222347,-0.35427499,1.010213,0.73971599,-0.071731001,-0.66727,-0.049224999,-0.38696237,-1.4634612,0.2154459
4769501146304,0.44211709,0,,0.0024930457,0.0011286869,0.0015448782,9.7819681,-0.40902099,0.988801,0.73972201,-0.071730003,-0.66726398,-0.049221002,-0.38695574,-1.463444,0.21544675
4769503131136,0.44410192,0,,0.0024930457,0.0011286869,0.0015448782,9.7819681,-0.40902099,0.988801,0.73972201,-0.071730003,-0.66726398,-0.049221002,-0.38695574,-1.463444,0.21544675
4769505104480,0.44607526,0,,0.0024930457,0.0011286869,0.0015448782,9.7819681,-0.40902099,0.988801,0.73972201,-0.071730003,-0.66726398,-0.049221002,-0.38695574,-1.463444,0.21544675
4769507128896,0.44809968,0,,-0.001513759,-0.0033124952,-0.0010800621,9.8751879,-0.450719,0.99473697,0.739721,-0.071728997,-0.66726601,-0.049219999,-0.38695558,-1.463449,0.21544962
4769509126304,0.45009709,0,,-0.001513759,-0.0033124952,-0.0010800621,9.8751879,-0.450719,0.99473697,0.739721,-0.071728997,-0.66726601,-0.049219999,-0.38695558,-1.463449,0.21544962
4769511102784,0.45207357,0,,-0.00093896968,0.0034018213,9.4701563e-05,9.8141899,-0.443295,1.037876,0.739721,-0.071732,-0.667265,-0.049221002,-0.38698321,-1.4634458,0.21547262
4769513113504,0.45408429,0,,-0.00093896968,0.0034018213,9.4701563e-05,9.8141899,-0.443295,1.037876,0.739721,-0.071732,-0.667265,-0.049221002,-0.38698321,-1.4634458,0.21547262
4769515291968,0.45626275,0,,-0.00093896968,0.0034018213,9.4701563e-05,9.8141899,-0.443295,1.037876,0.739721,-0.071732,-0.667265,-0.049221002,-0.38698321,-1.4634458,0.21547262
4769517124800,0.45809558,0,,-0.00026548203,0.0022899591,0.00034887388,9.8015709,-0.45397699,1.017329,0.73973101,-0.071730003,-0.66725498,-0.049217001,-0.38693261,-1.4634167,0.21542981
4769519136128,0.46010691,0,,-0.00026548203,0.0022899591,0.00034887388,9.8015709,-0.45397699,1.017329,0.73973101,-0.071730003,-0.66725498,-0.049217001,-0.38693261,-1.4634167,0.21542981
4769521167168,0.46213795,0,,0.0010239672,0.0016225453,-0.0014485011,9.8154869,-0.46007299,0.97694802,0.73973602,-0.071725003,-0.66724998,-0.049212001,-0.38688883,-1.4634044,0.21539983
4769523133440,0.46410422,0,,0.0010239672,0.0016225453,-0.0014485011,9.8154869,-0.46007299,0.97694802,0.73973602,-0.071725003,-0.66724998,-0.049212001,-0.38688883,-1.4634044,0.21539983
4769525134944,0.46610573,0,,0.0010239672,0.0016225453,-0.0014485011,9.8154869,-0.46007299,0.97694802,0.73973602,-0.071725003,-0.66724998,-0.049212001,-0.38688883,-1.4634044,0.21539983
4769527178944,0.46814973,0,,-0.0036743545,-0.00057985073,-0.0053188211,9.7231226,-0.38173801,1.013283,0.73973697,-0.071719997,-0.66724902,-0.049213998,-0.386788,-1.4634029,0.21530357
4769529128480,0.47009926,0,,-0.0036743545,-0.00057985073,-0.0053188211,9.7231226,-0.38173801,1.013283,0.73973697,-0.071719997,-0.66724902,-0.049213998,-0.386788,-1.4634029,0.21530357
4769531148576,0.47211936,0,,-0.0041989829,-2.7139869e-05,-0.0019069816,9.6996498,-0.40018499,1.007339,0.73973602,-0.071722001,-0.66724998,-0.049229998,-0.3866297,-1.4634129,0.21511852
4769533155136,0.47412592,0,,-0.0041989829,-2.7139869e-05,-0.0019069816,9.6996498,-0.40018499,1.007339,0.73973602,-0.071722001,-0.66724998,-0.049229998,-0.3866297,-1.4634129,0.21511852
4769535283168,0.47625395,0,,-0.0041989829,-2.7139869e-05,-0.0019069816,9.6996498,-0.40018499,1.007339,0.73973602,-0.071722001,-0.66724998,-0.049229998,-0.3866297,-1.4634129,0.21511852
4769537140224,0.47811101,0,,-0.0025470462,-0.0011694229,-0.00079752819,9.7414856,-0.40368399,0.97767103,0.73973697,-0.071727,-0.667247,-0.049237002,-0.38659462,-1.4634095,0.21506795
4769539133888,0.48010467,0,,-0.0025470462,-0.0011694229,-0.00079752819,9.7414856,-0.40368399,0.97767103,0.73973697,-0.071727,-0.667247,-0.049237002,-0.38659462,-1.4634095,0.21506795
4769541133248,0.48210403,0,,-0.0041874812,-0.00052127747,0.005315732,9.7127047,-0.35366601,0.99609798,0.73973602,-0.071737997,-0.667247,-0.049238998,-0.3867356,-1.4634061,0.21518989
4769543146144,0.48411693,0,,-0.0041874812,-0.00052127747,0.005315732,9.7127047,-0.35366601,0.99609798,0.73973602,-0.071737997,-0.667247,-0.049238998,-0.3867356,-1.4634061,0.21518989
4769545115712,0.4860865,0,,-0.0012504586,0.00022671827,0.002024931,9.7308817,-0.393139,0.98752099,0.73973697,-0.071750998,-0.66724497,-0.049242999,-0.38684702,-1.4633973,0.21527729
4769547121376,0.48809216,0,,-0.0012504586,0.00022671827,0.002024931,9.7308817,-0.393139,0.98752099,0.73973697,-0.071750998,-0.66724497,-0.049242999,-0.38684702,-1.4633973,0.21527729
4769549133760,0.49010454,0,,-0.0012504586,0.00022671827,0.002024931,9.7308817,-0.393139,0.98752099,0.73973697,-0.071750998,-0.66724497,-0.049242999,-0.38684702,-1.4633973,0.21527729
4769551108544,0.49207933,0,,0.0074364638,0.0037512536,-0.00041041416,9.7874355,-0.416623,0.97698897,0.73974103,-0.071748003,-0.66724002,-0.049238998,-0.3868088,-1.4633844,0.21524913
4769553107968,0.49407875,0,,0.0074364638,0.0037512536,-0.00041041416,9.7874355,-0.416623,0.97698897,0.73974103,-0.071748003,-0.66724002,-0.049238998,-0.3868088,-1.4633844,0.21524913
4769555301248,0.49627203,0,,0.0071385887,0.002206707,-0.00093197088,9.7510777,-0.33487299,0.986615,0.739748,-0.071730003,-0.66723502,-0.049226001,-0.38669049,-1.4633717,0.21517434
4769557115584,0.49808637,0,,0.0071385887,0.002206707,-0.00093197088,9.7510777,-0.33487299,0.986615,0.739748,-0.071730003,-0.66723502,-0.049226001,-0.38669049,-1.4633717,0.21517434
4769559100224,0.50007101,0,,0.0071385887,0.002206707,-0.00093197088,9.7510777,-0.33487299,0.986615,0.739748,-0.071730003,-0.66723502,-0.049226001,-0.38669049,-1.4633717,0.21517434
4769561110816,0.5020816,0,,0.00080288637,0.001056186,0.004819273,9.7806177,-0.37736699,0.96365702,0.73975301,-0.071727999,-0.66723001,-0.049224999,-0.38663709,-1.4633583,0.21512523
4769563100320,0.5040711,0,,0.00080288637,0.001056186,0.004819273,9.7806177,-0.37736699,0.96365702,0.73975301,-0.071727999,-0.66723001,-0.049224999,-0.38663709,-1.4633583,0.21512523
4769565107008,0.50607779,0,,0.00098820539,-0.0011994601,-0.0020184034,9.8662939,-0.451029,0.96653903,0.73975301,-0.071730003,-0.66723001,-0.049224,-0.38666679,-1.4633568,0.21515316
4769567207648,0.50817843,0,,0.00098820539,-0.0011994601,-0.0020184034,9.8662939,-0.451029,0.96653903,0.73975301,-0.071730003,-0.66723001,-0.049224,-0.38666679,-1.4633568,0.21515316
4769569119136,0.51008992,0,,0.00098820539,-0.0011994601,-0.0020184034,9.8662939,-0.451029,0.96653903,0.73975301,-0.071730003,-0.66723001,-0.049224,-0.38666679,-1.4633568,0.21515316
4769571120992,0.51209178,0,,-0.0024971648,-0.0011563155,-0.0020271999,9.8600607,-0.37681201,1.000311,0.73975003,-0.071727999,-0.66723299,-0.049222,-0.38667684,-1.4633651,0.21516839
4769573145344,0.51411613,0,,-0.0024971648,-0.0011563155,-0.0020271999,9.8600607,-0.37681201,1.000311,0.73975003,-0.071727999,-0.66723299,-0.049222,-0.38667684,-1.4633651,0.21516839
4769575381120,0.5163519,0,,-0.0024971648,-0.0011563155,-0.0020271999,9.8600607,-0.37681201,1.000311,0.73975003,-0.071727999,-0.66723299,-0.049222,-0.38667684,-1.4633651,0.21516839
4769577130208,0.51810099,0,,-0.0017689435,-0.0026370353,0.00041448078,9.7866488,-0.35733598,0.97665203,0.739748,-0.071732998,-0.66723502,-0.049233001,-0.38663653,-1.4633739,0.2151065
4769579141408,0.52011219,0,,-0.0017689435,-0.0026370353,0.00041448078,9.7866488,-0.35733598,0.97665203,0.739748,-0.071732998,-0.66723502,-0.049233001,-0.38663653,-1.4633739,0.2151065
4769581120352,0.52209114,0,,-0.001755487,0.00011763519,0.0020467302,9.764245,-0.41212499,0.951828,0.73974401,-0.071740001,-0.667238,-0.049240001,-0.38667135,-1.4633817,0.2151216
4769583120480,0.52409126,0,,-0.001755487,0.00011763519,0.0020467302,9.764245,-0.41212499,0.951828,0.73974401,-0.071740001,-0.667238,-0.049240001,-0.38667135,-1.4633817,0.2151216
4769585146848,0.52611763,0,,-0.00079957023,0.0012695526,0.0026362325,9.7469816,-0.37181899,0.994717,0.73974502,-0.071745001,-0.66723597,-0.049238,-0.38675504,-1.463376,0.21519969
4769587123360,0.52809414,0,,-0.00079957023,0.0012695526,0.0026362325,9.7469816,-0.37181899,0.994717,0.73974502,-0.071745001,-0.66723597,-0.049238,-0.38675504,-1.463376,0.21519969
4769589114688,0.53008547,0,,-0.00079957023,0.0012695526,0.0026362325,9.7469816,-0.37181899,0.994717,0.73974502,-0.071745001,-0.66723597,-0.049238,-0.38675504,-1.463376,0.21519969
4769591135264,0.53210605,0,,-0.0038158308,0.0028342226,-0.0011678172,9.72054,-0.35183999,1.003713,0.73974901,-0.071753003,-0.66723102,-0.049247,-0.38671589,-1.4633644,0.21513688
4769593125312,0.5340961,0,,-0.0038158308,0.0028342226,-0.0011678172,9.72054,-0.35183999,1.003713,0.73974901,-0.071753003,-0.66723102,-0.049247,-0.38671589,-1.4633644,0.21513688
4769595276256,0.53624704,0,,-0.0038158308,0.0028342226,-0.0011678172,9.72054,-0.35183999,1.003713,0.73974901,-0.071753003,-0.66723102,-0.049247,-0.38671589,-1.4633644,0.21513688
4769597133920,0.5381047,0,,-0.0010306344,0.0011406076,0.0019994666,9.684432,-0.39451301,0.98646301,0.73975301,-0.071759,-0.667225,-0.049256999,-0.38664146,-1.4633516,0.21503889
4769599111328,0.54008211,0,,-0.0010306344,0.0011406076,0.0019994666,9.684432,-0.39451301,0.98646301,0.73975301,-0.071759,-0.667225,-0.049256999,-0.38664146,-1.4633516,0.21503889
4769601182848,0.54215363,0,,0.0059919424,0.0021843843,0.0044442364,9.6923733,-0.40116099,0.99308002,0.73975801,-0.071762003,-0.66721898,-0.049251001,-0.3867054,-1.4633339,0.2151082
4769603142784,0.54411357,0,,0.0059919424,0.0021843843,0.0044442364,9.6923733,-0.40116099,0.99308002,0.73975801,-0.071762003,-0.66721898,-0.049251001,-0.3867054,-1.4633339,0.2151082
4769605103424,0.54607421,0,,0.0059919424,0.0021843843,0.0044442364,9.6923733,-0.40116099,0.99308002,0.73975801,-0.071762003,-0.66721898,-0.049251001,-0.3867054,-1.4633339,0.2151082
4769607174816,0.5481456,0,,0.0055356087,0.0013072516,0.0020691926,9.7540808,-0.40846398,1.01302,0.73976302,-0.071754001,-0.667216,-0.049233999,-0.38677531,-1.4633185,0.21521379
4769609124352,0.55009514,0,,0.0055356087,0.0013072516,0.0020691926,9.7540808,-0.40846398,1.01302,0.73976302,-0.071754001,-0.667216,-0.049233999,-0.38677531,-1.4633185,0.21521379
4769611106016,0.5520768,0,,0.003901544,-0.0027008971,0.00019828686,9.8080549,-0.47322199,1.004943,0.73976398,-0.071746998,-0.66721499,-0.049226001,-0.38675947,-1.4633161,0.21521942
4769613100384,0.55407117,0,,0.003901544,-0.0027008971,0.00019828686,9.8080549,-0.47322199,1.004943,0.73976398,-0.071746998,-0.66721499,-0.049226001,-0.38675947,-1.4633161,0.21521942
4769615295808,0.55626659,0,,0.003901544,-0.0027008971,0.00019828686,9.8080549,-0.47322199,1.004943,0.73976398,-0.071746998,-0.66721499,-0.049226001,-0.38675947,-1.4633161,0.21521942
4769617106720,0.5580775,0,,-0.0022875683,-0.0041475655,0.0010936233,9.8298264,-0.44891599,1.01357,0.73976099,-0.071744002,-0.66722101,-0.049213998,-0.3868898,-1.4633246,0.21537035
4769619101952,0.56007274,0,,-0.0022875683,-0.0041475655,0.0010936233,9.8298264,-0.44891599,1.01357,0.73976099,-0.071744002,-0.66722101,-0.049213998,-0.3868898,-1.4633246,0.21537035
4769621107968,0.56207875,0,,6.2447881e-05,-0.00078033669,0.00086083132,9.799552,-0.39655501,1.0063289,0.73975801,-0.07175,-0.66722298,-0.049212001,-0.38703364,-1.4633266,0.21550824
4769623098720,0.5640695,0,,6.2447881e-05,-0.00078033669,0.00086083132,9.799552,-0.39655501,1.0063289,0.73975801,-0.07175,-0.66722298,-0.049212001,-0.38703364,-1.4633266,0.21550824
4769625090208,0.56606099,0,,0.0092676456,0.002923793,-0.002277707,9.8302345,-0.43906999,1.009008,0.73976201,-0.071737997,-0.66722,-0.049206998,-0.38690035,-1.4633205,0.21540038
4769627094912,0.5680657,0,,0.0092676456,0.002923793,-0.002277707,9.8302345,-0.43906999,1.009008,0.73976201,-0.071737997,-0.66722,-0.049206998,-0.38690035,-1.4633205,0.21540038
4769629087936,0.57005872,0,,0.0092676456,0.002923793,-0.002277707,9.8302345,-0.43906999,1.009008,0.73976201,-0.071737997,-0.66722,-0.049206998,-0.38690035,-1.4633205,0.21540038
4769631121120,0.5720919,0,,0.00091668183,0.0013774837,-0.0014607009,9.8042374,-0.43219,1.004041,0.73976797,-0.071723998,-0.667216,-0.049199,-0.38677072,-1.4633099,0.21530114
4769633214272,0.57418506,0,,0.00091668183,0.0013774837,-0.0014607009,9.8042374,-0.43219,1.004041,0.73976797,-0.071723998,-0.667216,-0.049199,-0.38677072,-1.4633099,0.21530114
4769635368384,0.57633917,0,,0.00091668183,0.0013774837,-0.0014607009,9.8042374,-0.43219,1.004041,0.73976797,-0.071723998,-0.667216,-0.049199,-0.38677072,-1.4633099,0.21530114
4769637144832,0.57811562,0,,0.00036438984,-0.00027342329,-0.002123577,9.7362671,-0.37235799,1.004928,0.73977101,-0.071721002,-0.66721302,-0.049201999,-0.38666749,-1.4633056,0.215197
4769639128576,0.58009936,0,,0.00036438984,-0.00027342329,-0.002123577,9.7362671,-0.37235799,1.004928,0.73977101,-0.071721002,-0.66721302,-0.049201999,-0.38666749,-1.4633056,0.215197
4769641124224,0.58209501,0,,0.0078783462,0.002855376,-0.00077524034,9.7275152,-0.41539299,0.97135502,0.739775,-0.071712002,-0.66720897,-0.049201,-0.38652637,-1.4632984,0.21507113
4769643134368,0.58410515,0,,0.0078783462,0.002855376,-0.00077524034,9.7275152,-0.41539299,0.97135502,0.739775,-0.071712002,-0.66720897,-0.049201,-0.38652637,-1.4632984,0.21507113
4769645116224,0.58608701,0,,0.0078783462,0.002855376,-0.00077524034,9.7275152,-0.41539299,0.97135502,0.739775,-0.071712002,-0.66720897,-0.049201,-0.38652637,-1.4632984,0.21507113
4769647192800,0.58816358,0,,-0.00076354662,-0.0012026016,-0.00091444779,9.7209406,-0.41007701,0.98101699,0.73977798,-0.071700998,-0.66720802,-0.049194001,-0.38644977,-1.4632933,0.2150192
4769649154272,0.59012506,0,,-0.00076354662,-0.0012026016,-0.00091444779,9.7209406,-0.41007701,0.98101699,0.73977798,-0.071700998,-0.66720802,-0.049194001,-0.38644977,-1.4632933,0.2150192
4769651123936,0.59209472,0,,-0.00066545913,0.0010704802,0.00016601571,9.6584892,-0.312691,1.00371,0.73977697,-0.071704999,-0.66720897,-0.049197,-0.38647408,-1.4632968,0.21503323
4769653112000,0.59408278,0,,-0.00066545913,0.0010704802,0.00016601571,9.6584892,-0.312691,1.00371,0.73977697,-0.071704999,-0.66720897,-0.049197,-0.38647408,-1.4632968,0.21503323
4769655299360,0.59627014,0,,-0.00060290651,0.0032402561,-6.6182885e-05,9.7252817,-0.35579401,0.98356599,0.73978198,-0.071708001,-0.66720098,-0.049208999,-0.38632404,-1.4632807,0.21486269
4769657110208,0.59808099,0,,-0.00060290651,0.0032402561,-6.6182885e-05,9.7252817,-0.35579401,0.98356599,0.73978198,-0.071708001,-0.66720098,-0.049208999,-0.38632404,-1.4632807,0.21486269
4769659109504,0.60008029,0,,-0.00060290651,0.0032402561,-6.6182885e-05,9.7252817,-0.35579401,0.98356599,0.73978198,-0.071708001,-0.66720098,-0.049208999,-0.38632404,-1.4632807,0.21486269
4769661105824,0.60207661,0,,-0.0015963305,-0.0020621588,0.0017870252,9.7971048,-0.396815,0.97393,0.73978299,-0.071713001,-0.66719997,-0.049215999,-0.3863027,-1.4632807,0.2148251
4769663107648,0.60407843,0,,-0.0015963305,-0.0020621588,0.0017870252,9.7971048,-0.396815,0.97393,0.73978299,-0.071713001,-0.66719997,-0.049215999,-0.3863027,-1.4632807,0.2148251
4769665117504,0.60608829,0,,-0.0015963305,-0.0020621588,0.0017870252,9.7971048,-0.396815,0.97393,0.73978299,-0.071713001,-0.66719997,-0.049215999,-0.3863027,-1.4632807,0.2148251
4769667133440,0.60810422,0,,-0.001206773,0.0018315136,-0.00091720542,9.8042192,-0.377929,0.99269199,0.73978299,-0.071714997,-0.66719902,-0.049217001,-0.38631332,-1.4632783,0.21483153
4769669104480,0.61007526,0,,-0.001206773,0.0018315136,-0.00091720542,9.8042192,-0.377929,0.99269199,0.73978299,-0.071714997,-0.66719902,-0.049217001,-0.38631332,-1.4632783,0.21483153
4769671104576,0.61207536,0,,0.0013888458,-0.00090874059,0.0015471471,9.8528013,-0.41323701,0.96510899,0.73978502,-0.071717001,-0.66719598,-0.049224,-0.38623642,-1.4632728,0.21474173
4769673114144,0.61408493,0,,0.0013888458,-0.00090874059,0.0015471471,9.8528013,-0.41323701,0.96510899,0.73978502,-0.071717001,-0.66719598,-0.049224,-0.38623642,-1.4632728,0.21474173
4769675396000,0.61636678,0,,0.0013888458,-0.00090874059,0.0015471471,9.8528013,-0.41323701,0.96510899,0.73978502,-0.071717001,-0.66719598,-0.049224,-0.38623642,-1.4632728,0.21474173
4769677122336,0.61809312,0,,-0.0036418913,-0.0013392959,0.0026292339,9.852747,-0.392456,0.97600901,0.73978198,-0.071722999,-0.66719902,-0.049219001,-0.38639375,-1.4632768,0.21489678
4769679103776,0.62007456,0,,-0.0036418913,-0.0013392959,0.0026292339,9.852747,-0.392456,0.97600901,0.73978198,-0.071722999,-0.66719902,-0.049219001,-0.38639375,-1.4632768,0.21489678
4769681112416,0.6220832,0,,-0.0045522723,0.00049850094,-0.0007676307,9.7748737,-0.35214901,0.990484,0.73978001,-0.071733996,-0.66719997,-0.049226001,-0.38646599,-1.4632795,0.2149431
4769683101536,0.62407232,0,,-0.0045522723,0.00049850094,-0.0007676307,9.7748737,-0.35214901,0.990484,0.73978001,-0.071733996,-0.66719997,-0.049226001,-0.38646599,-1.4632795,0.2149431
4769685096128,0.62606691,0,,-0.0045522723,0.00049850094,-0.0007676307,9.7748737,-0.35214901,0.990484,0.73978001,-0.071733996,-0.66719997,-0.049226001,-0.38646599,-1.4632795,0.2149431
4769687147776,0.62811856,0,,-0.0028289343,-0.0022930311,0.0018000628,9.7668982,-0.42534301,0.97231603,0.739779,-0.071742997,-0.66719902,-0.049238998,-0.38643143,-1.4632807,0.21487822
4769689175488,0.63014627,0,,-0.0028289343,-0.0022930311,0.0018000628,9.7668982,-0.42534301,0.97231603,0.739779,-0.071742997,-0.66719902,-0.049238998,-0.38643143,-1.4632807,0.21487822
4769691172672,0.63214346,0,,-0.0031458687,-0.0073222319,5.1853733e-05,9.7633209,-0.38535401,1.008938,0.73977202,-0.07175,-0.66720599,-0.049238998,-0.3865809,-1.4632973,0.21501665
4769693181088,0.63415187,0,,-0.0031458687,-0.0073222319,5.1853733e-05,9.7633209,-0.38535401,1.008938,0.73977202,-0.07175,-0.66720599,-0.049238998,-0.3865809,-1.4632973,0.21501665
4769695418880,0.63638966,0,,-0.0031458687,-0.0073222319,5.1853733e-05,9.7633209,-0.38535401,1.008938,0.73977202,-0.07175,-0.66720599,-0.049238998,-0.3865809,-1.4632973,0.21501665
4769697119936,0.63809072,0,,0.00058313196,-0.0050936389,0.0023579223,9.6664143,-0.374154,1.007201,0.73976201,-0.071756996,-0.667216,-0.049238998,-0.38675704,-1.4633205,0.21518318
4769699117120,0.6400879,0,,0.00058313196,-0.0050936389,0.0023579223,9.6664143,-0.374154,1.007201,0.73976201,-0.071756996,-0.667216,-0.049238998,-0.38675704,-1.4633205,0.21518318
4769701124640,0.64209542,0,,0.0047710495,-0.0013972059,0.0042203283,9.6755733,-0.417202,0.98284101,0.73975897,-0.071758002,-0.66722,-0.049233001,-0.38686483,-1.4633278,0.21529881
4769703116096,0.64408688,0,,0.0047710495,-0.0013972059,0.0042203283,9.6755733,-0.417202,0.98284101,0.73975897,-0.071758002,-0.66722,-0.049233001,-0.38686483,-1.4633278,0.21529881
4769705114816,0.6460856,0,,0.0047710495,-0.0013972059,0.0042203283,9.6755733,-0.417202,0.98284101,0.73975897,-0.071758002,-0.66722,-0.049233001,-0.38686483,-1.4633278,0.21529881
4769707115168,0.64808595,0,,0.0025112322,-0.00015339699,0.0026212402,9.7167511,-0.39798701,1.021892,0.73975897,-0.071755998,-0.66722101,-0.049221002,-0.38698477,-1.4633249,0.2154393
4769709128352,0.65009914,0,,0.0025112322,-0.00015339699,0.0026212402,9.7167511,-0.39798701,1.021892,0.73975897,-0.071755998,-0.66722101,-0.049221002,-0.38698477,-1.4633249,0.2154393
4769711110560,0.65208134,0,,-0.0025330662,-0.0023572068,0.0022967138,9.7479773,-0.41863599,1.020656,0.73975998,-0.071762003,-0.66722,-0.049219001,-0.38708274,-1.463319,0.21552993
4769713108960,0.65407974,0,,-0.0025330662,-0.0023572068,0.0022967138,9.7479773,-0.41863599,1.020656,0.73975998,-0.071762003,-0.66722,-0.049219001,-0.38708274,-1.463319,0.21552993
4769715299392,0.65627018,0,,-0.0025330662,-0.0023572068,0.0022967138,9.7479773,-0.41863599,1.020656,0.73975998,-0.071762003,-0.66722,-0.049219001,-0.38708274,-1.463319,0.21552993
4769717105056,0.65807584,0,,0.0010704279,-0.00028740336,0.0016940166,9.7942667,-0.46900299,0.99181801,0.73975897,-0.071768001,-0.66722,-0.049217999,-0.38717628,-1.4633167,0.21561798
4769719105664,0.66007645,0,,0.0010704279,-0.00028740336,0.0016940166,9.7942667,-0.46900299,0.99181801,0.73975897,-0.071768001,-0.66722,-0.049217999,-0.38717628,-1.4633167,0.21561798
4769721099744,0.66207053,0,,0.0025613056,-0.00061697387,0.002056696,9.839819,-0.43133199,1.020189,0.73975998,-0.071767002,-0.66722,-0.049201999,-0.3873417,-1.4633099,0.21580764
4769723103008,0.66407379,0,,0.0025613056,-0.00061697387,0.002056696,9.839819,-0.43133199,1.020189,0.73975998,-0.071767002,-0.66722,-0.049201999,-0.3873417,-1.4633099,0.21580764
4769725099456,0.66607024,0,,0.0025613056,-0.00061697387,0.002056696,9.839819,-0.43133199,1.020189,0.73975998,-0.071767002,-0.66722,-0.049201999,-0.3873417,-1.4633099,0.21580764
4769727098976,0.66806976,0,,0.0039211788,-0.00043102651,0.001903107,9.8731146,-0.421974,1.018496,0.73976201,-0.071763001,-0.66721898,-0.049190998,-0.387417,-1.4633022,0.21590339
4769729180160,0.67015094,0,,0.0039211788,-0.00043102651,0.001903107,9.8731146,-0.421974,1.018496,0.73976201,-0.071763001,-0.66721898,-0.049190998,-0.387417,-1.4633022,0.21590339
4769731148256,0.67211904,0,,0.0090973364,-0.0017035636,-0.00053986524,9.8687897,-0.43559399,0.99158502,0.73976302,-0.071751997,-0.66722,-0.049176998,-0.38743128,-1.4633012,0.21595212
4769733184256,0.67415504,0,,0.0090973364,-0.0017035636,-0.00053986524,9.8687897,-0.43559399,0.99158502,0.73976302,-0.071751997,-0.66722,-0.049176998,-0.38743128,-1.4633012,0.21595212
4769735333568,0.67630435,0,,0.0090973364,-0.0017035636,-0.00053986524,9.8687897,-0.43559399,0.99158502,0.73976302,-0.071751997,-0.66722,-0.049176998,-0.38743128,-1.4633012,0.21595212
4769737107936,0.67807872,0,,0.005559188,0.00067994534,-0.0017716314,9.7431841,-0.37193701,0.98520201,0.73976398,-0.071736,-0.66722101,-0.049162999,-0.38738761,-1.4633001,0.21595074
4769739115264,0.68008605,0,,0.005559188,0.00067994534,-0.0017716314,9.7431841,-0.37193701,0.98520201,0.73976398,-0.071736,-0.66722101,-0.049162999,-0.38738761,-1.4633001,0.21595074
4769741122656,0.68209344,0,,0.00044237115,-0.00020455259,0.0001492431,9.7127485,-0.353239,0.97643101,0.73976701,-0.071728997,-0.66721898,-0.049162999,-0.38726913,-1.4632994,0.21584336
4769743150976,0.68412176,0,,0.00044237115,-0.00020455259,0.0001492431,9.7127485,-0.353239,0.97643101,0.73976701,-0.071728997,-0.66721898,-0.049162999,-0.38726913,-1.4632994,0.21584336
4769745148288,0.68611907,0,,0.00044237115,-0.00020455259,0.0001492431,9.7127485,-0.353239,0.97643101,0.73976701,-0.071728997,-0.66721898,-0.049162999,-0.38726913,-1.4632994,0.21584336
4769747149024,0.68811981,0,,-0.0051890383,-0.0039187703,0.0030255981,9.7487783,-0.37453601,0.96546602,0.73976398,-0.071739003,-0.66722101,-0.049171001,-0.38733458,-1.4633038,0.21588245
4769749113120,0.6900839,0,,-0.0051890383,-0.0039187703,0.0030255981,9.7487783,-0.37453601,0.96546602,0.73976398,-0.071739003,-0.66722101,-0.049171001,-0.38733458,-1.4633038,0.21588245
4769751113152,0.69208394,0,,0.0020361709,-8.5398956e-05,0.0019579278,9.7466431,-0.38159001,0.98066097,0.73975897,-0.071749002,-0.667225,-0.049174,-0.38746174,-1.463315,0.21599208
4769753118880,0.69408966,0,,0.0020361709,-8.5398956e-05,0.0019579278,9.7466431,-0.38159001,0.98066097,0.73975897,-0.071749002,-0.667225,-0.049174,-0.38746174,-1.463315,0.21599208
4769755270144,0.69624093,0,,0.0020361709,-8.5398956e-05,0.0019579278,9.7466431,-0.38159001,0.98066097,0.73975897,-0.071749002,-0.667225,-0.049174,-0.38746174,-1.463315,0.21599208
4769757102624,0.69807341,0,,0.002159845,0.00042418483,-0.00060891046,9.6763315,-0.33943,0.96915501,0.73976201,-0.071744002,-0.66722298,-0.049173001,-0.38739906,-1.4633078,0.21593832
4769759199840,0.70017062,0,,0.002159845,0.00042418483,-0.00060891046,9.6763315,-0.33943,0.96915501,0.73976201,-0.071744002,-0.66722298,-0.049173001,-0.38739906,-1.4633078,0.21593832
4769761185856,0.70215664,0,,-0.0017129534,-0.0066306454,0.0036866589,9.7203684,-0.33723301,0.97408903,0.73975599,-0.071746998,-0.66722798,-0.049175002,-0.3874445,-1.4633217,0.21597591
4769763111712,0.7040825,0,,-0.0017129534,-0.0066306454,0.0036866589,9.7203684,-0.33723301,0.97408903,0.73975599,-0.071746998,-0.66722798,-0.049175002,-0.3874445,-1.4633217,0.21597591
4769765100416,0.7060712,0,,-0.0084210392,-0.0031110145,-0.00081438809,9.7785292,-0.36670601,0.970451,0.739748,-0.071759999,-0.66723502,-0.049187999,-0.38753405,-1.4633451,0.21602792
4769767124224,0.70809501,0,,-0.0084210392,-0.0031110145,-0.00081438809,9.7785292,-0.36670601,0.970451,0.739748,-0.071759999,-0.66723502,-0.049187999,-0.38753405,-1.4633451,0.21602792
4769769142592,0.71011338,0,,-0.0084210392,-0.0031110145,-0.00081438809,9.7785292,-0.36670601,0.970451,0.739748,-0.071759999,-0.66723502,-0.049187999,-0.38753405,-1.4633451,0.21602792
4769771106944,0.71207773,0,,-0.0073838596,-0.00099998637,0.0011332947,9.8355856,-0.362928,0.99429899,0.73974299,-0.071778998,-0.667238,-0.049206998,-0.38758438,-1.4633551,0.21602649
4769773092288,0.71406307,0,,-0.0073838596,-0.00099998637,0.0011332947,9.8355856,-0.362928,0.99429899,0.73974299,-0.071778998,-0.667238,-0.049206998,-0.38758438,-1.4633551,0.21602649
4769775373568,0.71634435,0,,-0.0073838596,-0.00099998637,0.0011332947,9.8355856,-0.362928,0.99429899,0.73974299,-0.071778998,-0.667238,-0.049206998,-0.38758438,-1.4633551,0.21602649
4769777137120,0.7181079,0,,-0.0060477403,-0.0051923719,0.0024572142,9.8006716,-0.38576701,0.9842,0.73973799,-0.071791999,-0.66724098,-0.049219001,-0.38764976,-1.4633639,0.21605495
4769779132768,0.72010355,0,,-0.0060477403,-0.0051923719,0.0024572142,9.8006716,-0.38576701,0.9842,0.73973799,-0.071791999,-0.66724098,-0.049219001,-0.38764976,-1.4633639,0.21605495
4769781121184,0.72209197,0,,-0.0072735548,-0.0022591892,-0.00015163421,9.8038282,-0.42377999,0.98246497,0.73973101,-0.07181,-0.66724497,-0.049229,-0.38779897,-1.4633768,0.21616494
4769783119872,0.72409066,0,,-0.0072735548,-0.0022591892,-0.00015163421,9.8038282,-0.42377999,0.98246497,0.73973101,-0.07181,-0.66724497,-0.049229,-0.38779897,-1.4633768,0.21616494
4769785119584,0.72609037,0,,-0.0072735548,-0.0022591892,-0.00015163421,9.8038282,-0.42377999,0.98246497,0.73973101,-0.07181,-0.66724497,-0.049229,-0.38779897,-1.4633768,0.21616494
4769787122592,0.72809338,0,,-0.0072735548,-0.0022591892,-0.00015163421,9.8038282,-0.42377999,0.98246497,0.73973101,-0.07181,-0.66724497,-0.049229,-0.38779897,-1.4633768,0.21616494
4769789117216,0.730088,0,,-0.0072735548,-0.0022591892,-0.00015163421,9.8038282,-0.42377999,0.98246497,0.73973101,-0.07181,-0.66724497,-0.049229,-0.38779897,-1.4633768,0.21616494
4769791122176,0.73209296,0,,-0.0020538162,-0.0050593777,0.0011447963,9.8147593,-0.43969199,1.0075409,0.73971301,-0.071819,-0.66726398,-0.049238998,-0.38796242,-1.4634261,0.21630163
4769793144064,0.73411485,0,,-0.0020538162,-0.0050593777,0.0011447963,9.8147593,-0.43969199,1.0075409,0.73971301,-0.071819,-0.66726398,-0.049238998,-0.38796242,-1.4634261,0.21630163
4769795311904,0.73628269,0,,-0.0020538162,-0.0050593777,0.0011447963,9.8147593,-0.43969199,1.0075409,0.73971301,-0.071819,-0.66726398,-0.049238998,-0.38796242,-1.4634261,0.21630163
4769797110496,0.73808128,0,,0.0016995317,-0.0032399245,0.00037156315,9.7450323,-0.41177401,0.99334902,0.73970801,-0.071822003,-0.66726899,-0.049233999,-0.38809707,-1.4634363,0.21643888
4769799113024,0.74008381,0,,0.0016995317,-0.0032399245,0.00037156315,9.7450323,-0.41177401,0.99334902,0.73970801,-0.071822003,-0.66726899,-0.049233999,-0.38809707,-1.4634363,0.21643888
4769801119712,0.7420905,0,,0.0036971485,-0.0027753876,0.0013105851,9.7022629,-0.384321,1.009528,0.73970401,-0.071817003,-0.66727501,-0.049226001,-0.38816229,-1.4634478,0.21652365
4769803116448,0.74408723,0,,0.0036971485,-0.0027753876,0.0013105851,9.7022629,-0.384321,1.009528,0.73970401,-0.071817003,-0.66727501,-0.049226001,-0.38816229,-1.4634478,0.21652365
4769805162368,0.74613315,0,,0.0059847513,0.0038006638,-0.00094349009,9.7391815,-0.42984101,0.98906201,0.73970801,-0.071810998,-0.66727197,-0.049221002,-0.38811189,-1.4634402,0.21648708
4769807143264,0.74811405,0,,0.0059847513,0.0038006638,-0.00094349009,9.7391815,-0.42984101,0.98906201,0.73970801,-0.071810998,-0.66727197,-0.049221002,-0.38811189,-1.4634402,0.21648708
4769809718368,0.75068915,0,,0.0059847513,0.0038006638,-0.00094349009,9.7391815,-0.42984101,0.98906201,0.73970801,-0.071810998,-0.66727197,-0.049221002,-0.38811189,-1.4634402,0.21648708
4769811167328,0.75213811,0,,0.0011356334,-0.0021873164,0.0029017494,9.794529,-0.43059,0.98478699,0.739712,-0.071804002,-0.66726899,-0.049208999,-0.38813576,-1.463429,0.21653777
4769813135520,0.7541063,0,,0.0011356334,-0.0021873164,0.0029017494,9.794529,-0.43059,0.98478699,0.739712,-0.071804002,-0.66726899,-0.049208999,-0.38813576,-1.463429,0.21653777
4769815293952,0.75626474,0,,-0.0024526588,-0.00097384135,0.0016942434,9.7375259,-0.33902699,1.027524,0.73970801,-0.07181,-0.66727298,-0.049206,-0.38828046,-1.4634363,0.21667966
4769817143424,0.75811421,0,,-0.0024526588,-0.00097384135,0.0016942434,9.7375259,-0.33902699,1.027524,0.73970801,-0.07181,-0.66727298,-0.049206,-0.38828046,-1.4634363,0.21667966
4769819136576,0.76010736,0,,-0.0024526588,-0.00097384135,0.0016942434,9.7375259,-0.33902699,1.027524,0.73970801,-0.07181,-0.66727298,-0.049206,-0.38828046,-1.4634363,0.21667966
4769821129024,0.76209981,0,,-0.0033560761,-0.001048524,0.0032331527,9.7437773,-0.41904199,0.98637497,0.73970598,-0.071823999,-0.66727197,-0.049217999,-0.38832887,-1.4634346,0.21669156
4769823142016,0.7641128,0,,-0.0033560761,-0.001048524,0.0032331527,9.7437773,-0.41904199,0.98637497,0.73970598,-0.071823999,-0.66727197,-0.049217999,-0.38832887,-1.4634346,0.21669156
4769825126432,0.76609722,0,,-0.0033560761,-0.001048524,0.0032331527,9.7437773,-0.41904199,0.98637497,0.73970598,-0.071823999,-0.66727197,-0.049217999,-0.38832887,-1.4634346,0.21669156
4769827127488,0.76809827,0,,0.00018338174,0.0022556459,0.0033826401,9.7881975,-0.42393801,0.97323501,0.73970997,-0.071829997,-0.66726798,-0.049213,-0.38844162,-1.4634195,0.21680117
4769829139136,0.77010992,0,,0.00018338174,0.0022556459,0.0033826401,9.7881975,-0.42393801,0.97323501,0.73970997,-0.071829997,-0.66726798,-0.049213,-0.38844162,-1.4634195,0.21680117
4769831123712,0.7720945,0,,0.0042874886,-0.00068668237,0.0032793864,9.8275166,-0.37314299,1.003659,0.73971301,-0.071831003,-0.66726601,-0.049199998,-0.38858247,-1.463409,0.21695873
4769833121728,0.77409251,0,,0.0042874886,-0.00068668237,0.0032793864,9.8275166,-0.37314299,1.003659,0.73971301,-0.071831003,-0.66726601,-0.049199998,-0.38858247,-1.463409,0.21695873
4769835341696,0.77631248,0,,0.0042874886,-0.00068668237,0.0032793864,9.8275166,-0.37314299,1.003659,0.73971301,-0.071831003,-0.66726601,-0.049199998,-0.38858247,-1.463409,0.21695873
4769836980352,0.77795114,0,,0.0023201186,-0.00016339773,0.00052066662,9.7912445,-0.40782499,0.97856098,0.73971403,-0.071828999,-0.667265,-0.049197,-0.38858543,-1.4634041,0.21696948
4769839129728,0.78010051,0,,0.0023201186,-0.00016339773,0.00052066662,9.7912445,-0.40782499,0.97856098,0.73971403,-0.071828999,-0.667265,-0.049197,-0.38858543,-1.4634041,0.21696948
4769841155520,0.7821263,0,,0.0010680018,-9.5015725e-05,0.00040067522,9.7780075,-0.40033701,0.97200602,0.73971599,-0.071826003,-0.66726398,-0.049190998,-0.38860464,-1.4633985,0.21700101
4769843125088,0.78409587,0,,0.0010680018,-9.5015725e-05,0.00040067522,9.7780075,-0.40033701,0.97200602,0.73971599,-0.071826003,-0.66726398,-0.049190998,-0.38860464,-1.4633985,0.21700101
4769845113376,0.78608416,0,,0.0010680018,-9.5015725e-05,0.00040067522,9.7780075,-0.40033701,0.97200602,0.73971599,-0.071826003,-0.66726398,-0.049190998,-0.38860464,-1.4633985,0.21700101
4769847127200,0.78809798,0,,-8.9622661e-05,-0.003082391,9.9658303e-05,9.7452869,-0.325077,0.96790802,0.73971301,-0.071826003,-0.66726702,-0.049192,-0.38862628,-1.4634077,0.21702186
4769849151744,0.79012253,0,,-8.9622661e-05,-0.003082391,9.9658303e-05,9.7452869,-0.325077,0.96790802,0.73971301,-0.071826003,-0.66726702,-0.049192,-0.38862628,-1.4634077,0.21702186
4769851112288,0.79208307,0,,0.002452362,-0.0029385236,-7.8173295e-05,9.752079,-0.339955,0.97899699,0.73970699,-0.071826003,-0.66727298,-0.049199,-0.38858823,-1.4634258,0.21697409
4769853127456,0.79409824,0,,0.002452362,-0.0029385236,-7.8173295e-05,9.752079,-0.339955,0.97899699,0.73970699,-0.071826003,-0.66727298,-0.049199,-0.38858823,-1.4634258,0.21697409
4769855291648,0.79626243,0,,0.002452362,-0.0029385236,-7.8173295e-05,9.752079,-0.339955,0.97899699,0.73970699,-0.071826003,-0.66727298,-0.049199,-0.38858823,-1.4634258,0.21697409
4769857108128,0.79807891,0,,-0.00025998424,-0.0027733806,0.0019998156,9.7260914,-0.372217,0.97194302,0.739703,-0.071827002,-0.66727698,-0.049201999,-0.38859369,-1.4634375,0.21697514
4769859123680,0.80009446,0,,-0.00025998424,-0.0027733806,0.0019998156,9.7260914,-0.372217,0.97194302,0.739703,-0.071827002,-0.66727698,-0.049201999,-0.38859369,-1.4634375,0.21697514
4769861119936,0.80209072,0,,0.0024337745,0.0025514969,0.0029641974,9.7232904,-0.35549599,0.99280101,0.73970401,-0.071832001,-0.66727602,-0.049199998,-0.38866985,-1.4634341,0.21704611
4769863121952,0.80409274,0,,0.0024337745,0.0025514969,0.0029641974,9.7232904,-0.35549599,0.99280101,0.73970401,-0.071832001,-0.66727602,-0.049199998,-0.38866985,-1.4634341,0.21704611
4769865150496,0.80612128,0,,0.0024337745,0.0025514969,0.0029641974,9.7232904,-0.35549599,0.99280101,0.73970401,-0.071832001,-0.66727602,-0.049199998,-0.38866985,-1.4634341,0.21704611
4769867193728,0.80816451,0,,0.00014166837,0.0011556872,0.001323361,9.7351542,-0.38525099,0.968252,0.73970801,-0.071833998,-0.66727102,-0.049201999,-0.38864242,-1.4634211,0.21701361
4769869154688,0.81012547,0,,0.00014166837,0.0011556872,0.001323361,9.7351542,-0.38525099,0.968252,0.73970801,-0.071833998,-0.66727102,-0.049201999,-0.38864242,-1.4634211,0.21701361
4769871192128,0.81216291,0,,-0.0039058724,-0.0014151305,0.0021996384,9.7842226,-0.43690699,0.99235201,0.73970699,-0.071842,-0.66727,-0.049203999,-0.38872784,-1.463419,0.21708376
4769873149632,0.81412042,0,,-0.0039058724,-0.0014151305,0.0021996384,9.7842226,-0.43690699,0.99235201,0.73970699,-0.071842,-0.66727,-0.049203999,-0.38872784,-1.463419,0.21708376
4769875437856,0.81640864,0,,-0.00012280137,-0.00018753563,3.7402406e-05,9.7792101,-0.40913799,1.006452,0.73970598,-0.071849003,-0.66727102,-0.049203001,-0.3888381,-1.4634173,0.21718658
4769877146336,0.81811712,0,,-0.00012280137,-0.00018753563,3.7402406e-05,9.7792101,-0.40913799,1.006452,0.73970598,-0.071849003,-0.66727102,-0.049203001,-0.3888381,-1.4634173,0.21718658
4769879120288,0.82009107,0,,-0.00012280137,-0.00018753563,3.7402406e-05,9.7792101,-0.40913799,1.006452,0.73970598,-0.071849003,-0.66727102,-0.049203001,-0.3888381,-1.4634173,0.21718658
4769881110880,0.82208166,0,,-0.0006092072,0.0023692495,0.0014552555,9.814642,-0.44812599,0.993361,0.73970997,-0.071846999,-0.66726702,-0.049201999,-0.38879222,-1.4634061,0.21714305
4769883138656,0.82410944,0,,-0.0006092072,0.0023692495,0.0014552555,9.814642,-0.44812599,0.993361,0.73970997,-0.071846999,-0.66726702,-0.049201999,-0.38879222,-1.4634061,0.21714305
4769885111200,0.82608198,0,,-0.0006092072,0.0023692495,0.0014552555,9.814642,-0.44812599,0.993361,0.73970997,-0.071846999,-0.66726702,-0.049201999,-0.38879222,-1.4634061,0.21714305
4769887106080,0.82807686,0,,0.00023183209,0.0012756088,-0.0037139209,9.8276682,-0.41865999,0.99740303,0.73971301,-0.071845002,-0.66726398,-0.049203999,-0.38872255,-1.463399,0.21707403
4769889163648,0.83013443,0,,0.00023183209,0.0012756088,-0.0037139209,9.8276682,-0.41865999,0.99740303,0.73971301,-0.071845002,-0.66726398,-0.049203999,-0.38872255,-1.463399,0.21707403
4769891110656,0.83208144,0,,0.0037798771,0.00093574086,-0.0035277641,9.8373566,-0.41001901,1.01297,0.73971599,-0.071833998,-0.667261,-0.049208999,-0.38849751,-1.463399,0.21685716
4769893103520,0.8340743,0,,0.0037798771,0.00093574086,-0.0035277641,9.8373566,-0.41001901,1.01297,0.73971599,-0.071833998,-0.667261,-0.049208999,-0.38849751,-1.463399,0.21685716
4769895345056,0.83631584,0,,0.0037798771,0.00093574086,-0.0035277641,9.8373566,-0.41001901,1.01297,0.73971599,-0.071833998,-0.667261,-0.049208999,-0.38849751,-1.463399,0.21685716
4769897106592,0.83807738,0,,3.3632495e-05,0.00020680407,-0.00082035713,9.7711315,-0.372839,0.99622202,0.73971802,-0.071826003,-0.66725898,-0.049210001,-0.3883555,-1.4633985,0.21672494
4769899108832,0.84007962,0,,3.3632495e-05,0.00020680407,-0.00082035713,9.7711315,-0.372839,0.99622202,0.73971802,-0.071826003,-0.66725898,-0.049210001,-0.3883555,-1.4633985,0.21672494
4769901135264,0.84210605,0,,-0.0032572208,-0.0037481644,0.0011971213,9.7496519,-0.38998899,1.0025049,0.73971599,-0.071831003,-0.667261,-0.049217001,-0.388352,-1.4634034,0.21670538
4769903098432,0.84406922,0,,-0.0032572208,-0.0037481644,0.0011971213,9.7496519,-0.38998899,1.0025049,0.73971599,-0.071831003,-0.667261,-0.049217001,-0.388352,-1.4634034,0.21670538
4769905098176,0.84606896,0,,-0.0032572208,-0.0037481644,0.0011971213,9.7496519,-0.38998899,1.0025049,0.73971599,-0.071831003,-0.667261,-0.049217001,-0.388352,-1.4634034,0.21670538
4769907119552,0.84809034,0,,0.00060681608,-0.0024104219,0.003162554,9.7266674,-0.41268599,0.97750998,0.73971099,-0.071837999,-0.66726601,-0.049215999,-0.38849145,-1.4634129,0.21683632
4769909106848,0.85007763,0,,0.00060681608,-0.0024104219,0.003162554,9.7266674,-0.41268599,0.97750998,0.73971099,-0.071837999,-0.66726601,-0.049215999,-0.38849145,-1.4634129,0.21683632
4769911092448,0.85206323,0,,0.0020791061,0.0039047728,0.0013875367,9.7113075,-0.37438801,0.99181998,0.73971498,-0.071840003,-0.667261,-0.049208999,-0.3885803,-1.4633973,0.21693178
4769913135616,0.8541064,0,,0.0020791061,0.0039047728,0.0013875367,9.7113075,-0.37438801,0.99181998,0.73971498,-0.071840003,-0.667261,-0.049208999,-0.3885803,-1.4633973,0.21693178
4769915307488,0.85627827,0,,0.0020791061,0.0039047728,0.0013875367,9.7113075,-0.37438801,0.99181998,0.73971498,-0.071840003,-0.667261,-0.049208999,-0.3885803,-1.4633973,0.21693178
4769917141696,0.85811248,0,,0.0043976363,0.0049342555,-0.0022236542,9.6781092,-0.39144298,0.99335897,0.73972398,-0.071833,-0.66725302,-0.049206998,-0.38843093,-1.4633768,0.21679539
4769919163584,0.86013437,0,,0.0043976363,0.0049342555,-0.0022236542,9.6781092,-0.39144298,0.99335897,0.73972398,-0.071833,-0.66725302,-0.049206998,-0.38843093,-1.4633768,0.21679539
4769921116672,0.86208746,0,,0.0022500611,0.0025650754,0.0021676291,9.7301807,-0.41646701,0.97715098,0.73973298,-0.071827002,-0.667243,-0.049206998,-0.38828083,-1.4633539,0.2166549
4769923109920,0.8640807,0,,0.0022500611,0.0025650754,0.0021676291,9.7301807,-0.41646701,0.97715098,0.73973298,-0.071827002,-0.667243,-0.049206998,-0.38828083,-1.4633539,0.2166549
4769925113952,0.86608474,0,,0.0032372541,0.0012094608,0.0016908401,9.7726727,-0.392768,0.982256,0.73973501,-0.071823999,-0.66724098,-0.049196001,-0.38834821,-1.4633456,0.2167407
4769927146496,0.86811728,0,,0.0032372541,0.0012094608,0.0016908401,9.7726727,-0.392768,0.982256,0.73973501,-0.071823999,-0.66724098,-0.049196001,-0.38834821,-1.4633456,0.2167407
4769929131488,0.87010227,0,,0.0032372541,0.0012094608,0.0016908401,9.7726727,-0.392768,0.982256,0.73973501,-0.071823999,-0.66724098,-0.049196001,-0.38834821,-1.4633456,0.2167407
4769931116576,0.87208736,0,,0.0050658182,0.0023037649,0.00085378019,9.8135042,-0.43103001,0.98227698,0.73974103,-0.071822003,-0.66723597,-0.04919,-0.38836166,-1.463329,0.21676552
4769933164480,0.87413526,0,,0.0050658182,0.0023037649,0.00085378019,9.8135042,-0.43103001,0.98227698,0.73974103,-0.071822003,-0.66723597,-0.04919,-0.38836166,-1.463329,0.21676552
4769935293600,0.87626438,0,,0.0050658182,0.0023037649,0.00085378019,9.8135042,-0.43103001,0.98227698,0.73974103,-0.071822003,-0.66723597,-0.04919,-0.38836166,-1.463329,0.21676552
4769937112160,0.87808294,0,,0.0029068284,-0.0010649301,0.0031101243,9.8383503,-0.39226601,0.99032301,0.73974401,-0.071814999,-0.667234,-0.049175002,-0.38842178,-1.463319,0.21685665
4769939137120,0.8801079,0,,0.0029068284,-0.0010649301,0.0031101243,9.8383503,-0.39226601,0.99032301,0.73974401,-0.071814999,-0.667234,-0.049175002,-0.38842178,-1.463319,0.21685665
4769941121600,0.88209238,0,,-0.0085103648,-0.002279592,-0.0007026521,9.8319159,-0.35423601,0.98751497,0.739739,-0.071824998,-0.667238,-0.049180999,-0.38853067,-1.4633283,0.21694313
4769943141792,0.88411258,0,,-0.0085103648,-0.002279592,-0.0007026521,9.8319159,-0.35423601,0.98751497,0.739739,-0.071824998,-0.667238,-0.049180999,-0.38853067,-1.4633283,0.21694313
4769945099296,0.88607008,0,,-0.0085103648,-0.002279592,-0.0007026521,9.8319159,-0.35423601,0.98751497,0.739739,-0.071824998,-0.667238,-0.049180999,-0.38853067,-1.4633283,0.21694313
4769947101536,0.88807232,0,,-0.00026008897,-0.0030400494,-9.0338239e-05,9.8380728,-0.39077601,0.98285502,0.73973399,-0.071837001,-0.66724098,-0.049198002,-0.38851382,-1.4633411,0.21688556
4769949112928,0.89008371,0,,-0.00026008897,-0.0030400494,-9.0338239e-05,9.8380728,-0.39077601,0.98285502,0.73973399,-0.071837001,-0.66724098,-0.049198002,-0.38851382,-1.4633411,0.21688556
4769951094560,0.89206534,0,,0.0028371724,-0.00010407398,-0.00070692818,9.7747459,-0.39065999,0.98220998,0.73973101,-0.071832001,-0.66724497,-0.049199,-0.38846565,-1.4633534,0.21684253
4769953090368,0.89406115,0,,0.0028371724,-0.00010407398,-0.00070692818,9.7747459,-0.39065999,0.98220998,0.73973101,-0.071832001,-0.66724497,-0.049199,-0.38846565,-1.4633534,0.21684253
4769955286432,0.89625722,0,,0.0028371724,-0.00010407398,-0.00070692818,9.7747459,-0.39065999,0.98220998,0.73973101,-0.071832001,-0.66724497,-0.049199,-0.38846565,-1.4633534,0.21684253
4769957087552,0.89805834,0,,-0.0028116206,0.0024084146,0.0008244412,9.7360201,-0.368597,0.984658,0.73973399,-0.071833998,-0.66724098,-0.049203001,-0.38840893,-1.4633451,0.21677858
4769959088736,0.90005952,0,,-0.0028116206,0.0024084146,0.0008244412,9.7360201,-0.368597,0.984658,0.73973399,-0.071833998,-0.66724098,-0.049203001,-0.38840893,-1.4633451,0.21677858
4769961083392,0.90205418,0,,0.00046492079,0.0033517302,7.5328407e-05,9.6808472,-0.352777,0.96811497,0.73974001,-0.071837999,-0.667234,-0.049208999,-0.38834591,-1.463329,0.21669932
4769963109504,0.90408029,0,,0.00046492079,0.0033517302,7.5328407e-05,9.6808472,-0.352777,0.96811497,0.73974001,-0.071837999,-0.667234,-0.049208999,-0.38834591,-1.463329,0.21669932
4769965084352,0.90605514,0,,0.00046492079,0.0033517302,7.5328407e-05,9.6808472,-0.352777,0.96811497,0.73974001,-0.071837999,-0.667234,-0.049208999,-0.38834591,-1.463329,0.21669932
4769967116800,0.90808758,0,,0.0012575097,0.0041823847,0.0023691447,9.6443424,-0.35835999,0.98110998,0.73974699,-0.071840003,-0.66722602,-0.049213,-0.38826971,-1.4633085,0.21661526
4769969111488,0.91008227,0,,0.0012575097,0.0041823847,0.0023691447,9.6443424,-0.35835999,0.98110998,0.73974699,-0.071840003,-0.66722602,-0.049213,-0.38826971,-1.4633085,0.21661526
4769971094176,0.91206496,0,,-0.004306565,0.0012880355,0.004116167,9.6910019,-0.381475,0.99400699,0.73975301,-0.071847998,-0.66721702,-0.049215999,-0.3882805,-1.4632856,0.21661005
4769973077504,0.91404829,0,,-0.004306565,0.0012880355,0.004116167,9.6910019,-0.381475,0.99400699,0.73975301,-0.071847998,-0.66721702,-0.049215999,-0.3882805,-1.4632856,0.21661005
4769975306336,0.91627712,0,,-0.004306565,0.0012880355,0.004116167,9.6910019,-0.381475,0.99400699,0.73975301,-0.071847998,-0.66721702,-0.049215999,-0.3882805,-1.4632856,0.21661005
4769977085600,0.91805638,0,,-0.003935473,-0.001884781,0.0045069289,9.8005209,-0.40136299,0.97867501,0.73975199,-0.071864001,-0.66721702,-0.049219999,-0.38844462,-1.4632833,0.21674566
4769979133184,0.92010397,0,,-0.003935473,-0.001884781,0.0045069289,9.8005209,-0.40136299,0.97867501,0.73975199,-0.071864001,-0.66721702,-0.049219999,-0.38844462,-1.4632833,0.21674566
4769981108768,0.92207955,0,,0.00056512018,0.00026164231,0.002268038,9.8027124,-0.40921599,0.98557597,0.73975301,-0.071874,-0.66721499,-0.049217001,-0.38859665,-1.4632755,0.21688875
4769983107776,0.92407856,0,,0.00056512018,0.00026164231,0.002268038,9.8027124,-0.40921599,0.98557597,0.73975301,-0.071874,-0.66721499,-0.049217001,-0.38859665,-1.4632755,0.21688875
4769985100992,0.92607178,0,,0.00056512018,0.00026164231,0.002268038,9.8027124,-0.40921599,0.98557597,0.73975301,-0.071874,-0.66721499,-0.049217001,-0.38859665,-1.4632755,0.21688875
4769987126176,0.92809696,0,,0.0038431102,0.0010165321,0.003471966,9.8286476,-0.430354,0.99696398,0.73975301,-0.071877003,-0.667216,-0.049208999,-0.38874229,-1.4632695,0.2170416
4769989137344,0.93010813,0,,0.0038431102,0.0010165321,0.003471966,9.8286476,-0.430354,0.99696398,0.73975301,-0.071877003,-0.667216,-0.049208999,-0.38874229,-1.4632695,0.2170416
4769991131552,0.93210234,0,,-0.00088338094,-0.0038159704,0.0022560998,9.8601809,-0.42040601,0.98519599,0.73975301,-0.071877003,-0.66721702,-0.049198002,-0.38886942,-1.4632672,0.21718333
4769993099552,0.93407034,0,,-0.00088338094,-0.0038159704,0.0022560998,9.8601809,-0.42040601,0.98519599,0.73975301,-0.071877003,-0.66721702,-0.049198002,-0.38886942,-1.4632672,0.21718333
4769995294176,0.93626496,0,,-0.00088338094,-0.0038159704,0.0022560998,9.8601809,-0.42040601,0.98519599,0.73975301,-0.071877003,-0.66721702,-0.049198002,-0.38886942,-1.4632672,0.21718333
4769997093984,0.93806477,0,,-0.0021068568,-0.0013899802,0.0027246858,9.8365927,-0.407327,1.00288,0.73975098,-0.071882002,-0.66721797,-0.049194001,-0.38900258,-1.4632677,0.21731514
4769999094592,0.94006538,0,,-0.0021068568,-0.0013899802,0.0027246858,9.8365927,-0.407327,1.00288,0.73975098,-0.071882002,-0.66721797,-0.049194001,-0.38900258,-1.4632677,0.21731514
4770001809120,0.9427799,0,,-0.0016935628,0.0024337045,0.0017889276,9.7594166,-0.41828999,0.97975898,0.73975199,-0.071892001,-0.667216,-0.049194001,-0.3891112,-1.46326,0.21740955
4770003139200,0.94410998,0,,-0.0016935628,0.0024337045,0.0017889276,9.7594166,-0.41828999,0.97975898,0.73975199,-0.071892001,-0.667216,-0.049194001,-0.3891112,-1.46326,0.21740955
4770005138400,0.94610918,0,,-0.0016935628,0.0024337045,0.0017889276,9.7594166,-0.41828999,0.97975898,0.73975199,-0.071892001,-0.667216,-0.049194001,-0.3891112,-1.46326,0.21740955
4770007102784,0.94807357,0,,0.0010198657,0.0036071417,0.0017048201,9.7944508,-0.412081,0.980151,0.73975801,-0.071892001,-0.66720998,-0.04919,-0.38912911,-1.4632406,0.21743339
4770009107136,0.95007792,0,,0.0010198657,0.0036071417,0.0017048201,9.7944508,-0.412081,0.980151,0.73975801,-0.071892001,-0.66720998,-0.04919,-0.38912911,-1.4632406,0.21743339
4770011137152,0.95210794,0,,0.0031937083,0.0029974632,0.0030680097,9.7766018,-0.40139401,0.97047198,0.73976398,-0.071893997,-0.66720301,-0.049183998,-0.38916294,-1.4632206,0.2174721
4770013086592,0.95405738,0,,0.0031937083,0.0029974632,0.0030680097,9.7766018,-0.40139401,0.97047198,0.73976398,-0.071893997,-0.66720301,-0.049183998,-0.38916294,-1.4632206,0.2174721
4770015273856,0.95624464,0,,0.0031937083,0.0029974632,0.0030680097,9.7766018,-0.40139401,0.97047198,0.73976398,-0.071893997,-0.66720301,-0.049183998,-0.38916294,-1.4632206,0.2174721
4770017077056,0.95804784,0,,0.0067552792,0.00097295125,0.00064484681,9.7535334,-0.38413301,0.98032302,0.73976898,-0.071887001,-0.66719902,-0.049174,-0.38915208,-1.4632057,0.21748618
4770019083488,0.96005427,0,,0.0067552792,0.00097295125,0.00064484681,9.7535334,-0.38413301,0.98032302,0.73976898,-0.071887001,-0.66719902,-0.049174,-0.38915208,-1.4632057,0.21748618
4770021072928,0.96204371,0,,-0.0024663423,-0.0059339276,-0.00097708767,9.7162895,-0.356076,0.97392499,0.73976398,-0.071883,-0.66720498,-0.049174,-0.38914196,-1.4632223,0.21748131
4770023077184,0.96404797,0,,-0.0024663423,-0.0059339276,-0.00097708767,9.7162895,-0.356076,0.97392499,0.73976398,-0.071883,-0.66720498,-0.049174,-0.38914196,-1.4632223,0.21748131
4770025068544,0.96603933,0,,-0.00019388863,0.005262412,0.0015160279,9.7210922,-0.32580701,0.98317701,0.73976398,-0.071886003,-0.66720402,-0.049183,-0.38907715,-1.4632234,0.21739947
4770027046912,0.9680177,0,,-0.00019388863,0.005262412,0.0015160279,9.7210922,-0.32580701,0.98317701,0.73976398,-0.071886003,-0.66720402,-0.049183,-0.38907715,-1.4632234,0.21739947
4770029103648,0.97007443,0,,-0.00019388863,0.005262412,0.0015160279,9.7210922,-0.32580701,0.98317701,0.73976398,-0.071886003,-0.66720402,-0.049183,-0.38907715,-1.4632234,0.21739947
4770031067360,0.97203814,0,,-0.0010761526,0.0027777787,0.0012086928,9.7474241,-0.35074601,0.97412097,0.73977202,-0.071892001,-0.66719401,-0.049192999,-0.38896084,-1.4632024,0.21726075
4770033188384,0.97415917,0,,-0.0010761526,0.0027777787,0.0012086928,9.7474241,-0.35074601,0.97412097,0.73977202,-0.071892001,-0.66719401,-0.049192999,-0.38896084,-1.4632024,0.21726075
4770035335616,0.9763064,0,,-0.0010761526,0.0027777787,0.0012086928,9.7474241,-0.35074601,0.97412097,0.73977202,-0.071892001,-0.66719401,-0.049192999,-0.38896084,-1.4632024,0.21726075
4770037133760,0.97810454,0,,-0.0013144249,-0.00040322343,0.0038926427,9.8123226,-0.387692,0.98224998,0.73977202,-0.071901001,-0.66719198,-0.049199,-0.38901576,-1.4631972,0.21729382
4770039141504,0.98011229,0,,-0.0013144249,-0.00040322343,0.0038926427,9.8123226,-0.387692,0.98224998,0.73977202,-0.071901001,-0.66719198,-0.049199,-0.38901576,-1.4631972,0.21729382
4770041132576,0.98210336,0,,-0.00039578833,0.0025071305,0.004744887,9.8170624,-0.419846,0.98370999,0.73977602,-0.071912996,-0.66718698,-0.049196001,-0.38916703,-1.4631789,0.21743289
4770043130976,0.98410176,0,,-0.00039578833,0.0025071305,0.004744887,9.8170624,-0.419846,0.98370999,0.73977602,-0.071912996,-0.66718698,-0.049196001,-0.38916703,-1.4631789,0.21743289
4770045099616,0.9860704,0,,-0.0026986805,-0.0036333741,0.00063552672,9.7931175,-0.404598,0.98785299,0.739775,-0.07192,-0.66718698,-0.049192999,-0.38929307,-1.4631756,0.21755228
4770047095776,0.98806656,0,,-0.0026986805,-0.0036333741,0.00063552672,9.7931175,-0.404598,0.98785299,0.739775,-0.07192,-0.66718698,-0.049192999,-0.38929307,-1.4631756,0.21755228
4770049098976,0.99006976,0,,-0.0026986805,-0.0036333741,0.00063552672,9.7931175,-0.404598,0.98785299,0.739775,-0.07192,-0.66718698,-0.049192999,-0.38929307,-1.4631756,0.21755228
4770051160544,0.99213133,0,,-0.0040178178,-0.0010626437,0.00062707931,9.7768841,-0.41294101,0.98365098,0.73977,-0.071929,-0.66719198,-0.049199,-0.38939227,-1.4631896,0.2176299
4770053091520,0.9940623,0,,-0.0040178178,-0.0010626437,0.00062707931,9.7768841,-0.41294101,0.98365098,0.73977,-0.071929,-0.66719198,-0.049199,-0.38939227,-1.4631896,0.2176299
4770055129376,0.99610016,0,,-0.0040178178,-0.0010626437,0.00062707931,9.7768841,-0.41294101,0.98365098,0.73977,-0.071929,-0.66719198,-0.049199,-0.38939227,-1.4631896,0.2176299
4770057082208,0.99805299,0,,0.0024234769,0.0031876519,0.00085088289,9.7988863,-0.41366601,1.000669,0.73977202,-0.071932003,-0.667189,-0.049199998,-0.38938691,-1.4631828,0.21761951
4770059083840,1.0000546,0,,0.0024234769,0.0031876519,0.00085088289,9.7988863,-0.41366601,1.000669,0.73977202,-0.071932003,-0.667189,-0.049199998,-0.38938691,-1.4631828,0.21761951
4770061080032,1.0020508,0,,0.0037469077,0.0036716141,-6.9010316e-05,9.8116121,-0.44636199,0.97804099,0.739779,-0.071926996,-0.66718298,-0.049194001,-0.38934337,-1.4631628,0.21759216
4770063080704,1.0040515,0,,0.0037469077,0.0036716141,-6.9010316e-05,9.8116121,-0.44636199,0.97804099,0.739779,-0.071926996,-0.66718298,-0.049194001,-0.38934337,-1.4631628,0.21759216
4770065086592,1.0060574,0,,0.0037469077,0.0036716141,-6.9010316e-05,9.8116121,-0.44636199,0.97804099,0.739779,-0.071926996,-0.66718298,-0.049194001,-0.38934337,-1.4631628,0.21759216
4770067093248,1.008064,0,,0.0021712594,-0.00079604466,-0.0025685661,9.7601967,-0.40930101,0.98151702,0.73978299,-0.071919002,-0.66718,-0.049187999,-0.38929167,-1.4631535,0.21755999
4770069077632,1.0100484,0,,0.0021712594,-0.00079604466,-0.0025685661,9.7601967,-0.40930101,0.98151702,0.73978299,-0.071919002,-0.66718,-0.049187999,-0.38929167,-1.4631535,0.21755999
4770071080800,1.0120516,0,,0.0028996727,-0.00042046727,-0.0026645767,9.7475986,-0.35891101,1.006137,0.73978198,-0.071910001,-0.66718102,-0.049187001,-0.38918734,-1.4631623,0.21746924
4770073071008,1.0140418,0,,0.0028996727,-0.00042046727,-0.0026645767,9.7475986,-0.35891101,1.006137,0.73978198,-0.071910001,-0.66718102,-0.049187001,-0.38918734,-1.4631623,0.21746924
4770075358592,1.0163294,0,,0.0028996727,-0.00042046727,-0.0026645767,9.7475986,-0.35891101,1.006137,0.73978198,-0.071910001,-0.66718102,-0.049187001,-0.38918734,-1.4631623,0.21746924
4770077104000,1.0180748,0,,-0.0075767188,0.00056665605,-0.0016166985,9.7546415,-0.41070199,0.99198699,0.73978299,-0.071911998,-0.66717899,-0.049203999,-0.38899709,-1.4631617,0.21725327
4770079104512,1.0200753,0,,-0.0075767188,0.00056665605,-0.0016166985,9.7546415,-0.41070199,0.99198699,0.73978299,-0.071911998,-0.66717899,-0.049203999,-0.38899709,-1.4631617,0.21725327
4770081067168,1.022038,0,,-0.0050934469,0.00025675539,0.0011733499,9.7833138,-0.414334,0.98725402,0.739784,-0.071924001,-0.66717601,-0.049215999,-0.38899156,-1.4631567,0.21721269
4770083086912,1.0240577,0,,-0.0050934469,0.00025675539,0.0011733499,9.7833138,-0.414334,0.98725402,0.739784,-0.071924001,-0.66717601,-0.049215999,-0.38899156,-1.4631567,0.21721269
4770085071296,1.0260421,0,,-0.0050934469,0.00025675539,0.0011733499,9.7833138,-0.414334,0.98725402,0.739784,-0.071924001,-0.66717601,-0.049215999,-0.38899156,-1.4631567,0.21721269
4770087067136,1.0280379,0,,3.4435344e-05,0.00060679859,0.0045842646,9.798522,-0.42584601,0.98619002,0.73978502,-0.071933001,-0.66717303,-0.049213998,-0.38912585,-1.4631464,0.21733811
4770089061728,1.0300325,0,,3.4435344e-05,0.00060679859,0.0045842646,9.798522,-0.42584601,0.98619002,0.73978502,-0.071933001,-0.66717303,-0.049213998,-0.38912585,-1.4631464,0.21733811
4770091115520,1.0320863,0,,3.4435344e-05,0.00060679859,0.0045842646,9.798522,-0.42584601,0.98619002,0.73978502,-0.071933001,-0.66717303,-0.049213998,-0.38912585,-1.4631464,0.21733811
4770093100288,1.0340711,0,,3.4435344e-05,0.00060679859,0.0045842646,9.798522,-0.42584601,0.98619002,0.73978502,-0.071933001,-0.66717303,-0.049213998,-0.38912585,-1.4631464,0.21733811
4770095280704,1.0362515,0,,3.4435344e-05,0.00060679859,0.0045842646,9.798522,-0.42584601,0.98619002,0.73978502,-0.071933001,-0.66717303,-0.049213998,-0.38912585,-1.4631464,0.21733811
4770097089376,1.0380602,0,,0.0053351574,0.00060329051,-0.0023902633,9.9642553,-0.48725399,1.0078419,0.73979402,-0.071920998,-0.66716701,-0.049182002,-0.38929073,-1.4631191,0.21756491
4770099106624,1.0400774,0,,0.0053351574,0.00060329051,-0.0023902633,9.9642553,-0.48725399,1.0078419,0.73979402,-0.071920998,-0.66716701,-0.049182002,-0.38929073,-1.4631191,0.21756491
4770101098464,1.0420692,0,,0.0019367396,-0.0032087705,-0.0098683361,9.7524004,-0.36640599,1.014356,0.73979199,-0.071901001,-0.66717201,-0.049178001,-0.38909706,-1.4631346,0.21740476
4770103093088,1.0440639,0,,0.0019367396,-0.0032087705,-0.0098683361,9.7524004,-0.36640599,1.014356,0.73979199,-0.071901001,-0.66717201,-0.049178001,-0.38909706,-1.4631346,0.21740476
4770105089056,1.0460598,0,,0.0019367396,-0.0032087705,-0.0098683361,9.7524004,-0.36640599,1.014356,0.73979199,-0.071901001,-0.66717201,-0.049178001,-0.38909706,-1.4631346,0.21740476
4770107087264,1.048058,0,,-0.005996515,-0.0031293927,-0.0072835906,9.5787592,-0.31051299,0.98845202,0.73978597,-0.071892001,-0.66717798,-0.049205001,-0.38870597,-1.4631652,0.21698747
4770109096640,1.0500674,0,,-0.005996515,-0.0031293927,-0.0072835906,9.5787592,-0.31051299,0.98845202,0.73978597,-0.071892001,-0.66717798,-0.049205001,-0.38870597,-1.4631652,0.21698747
4770111113568,1.0520844,0,,-0.00082714643,0.00027640781,-0.0018782361,9.6824446,-0.32582399,0.99049801,0.73978502,-0.071892001,-0.66717702,-0.049229998,-0.38840607,-1.4631763,0.21665228
4770113104224,1.054075,0,,-0.00082714643,0.00027640781,-0.0018782361,9.6824446,-0.32582399,0.99049801,0.73978502,-0.071892001,-0.66717702,-0.049229998,-0.38840607,-1.4631763,0.21665228
4770115302112,1.0562729,0,,-0.00082714643,0.00027640781,-0.0018782361,9.6824446,-0.32582399,0.99049801,0.73978502,-0.071892001,-0.66717702,-0.049229998,-0.38840607,-1.4631763,0.21665228
4770117095680,1.0580665,0,,-0.0024379281,-0.0036342817,0.0024811775,9.7445126,-0.341028,0.99738503,0.73978299,-0.071900003,-0.66717798,-0.049240001,-0.38841109,-1.4631818,0.21663324
4770119099040,1.0600698,0,,-0.0024379281,-0.0036342817,0.0024811775,9.7445126,-0.341028,0.99738503,0.73978299,-0.071900003,-0.66717798,-0.049240001,-0.38841109,-1.4631818,0.21663324
4770121120768,1.0620916,0,,-0.0071785918,0.00084952154,0.004130217,9.6553822,-0.42822701,0.99519199,0.73977798,-0.071916997,-0.66718,-0.049249999,-0.38854522,-1.4631878,0.21672748
4770123091776,1.0640626,0,,-0.0071785918,0.00084952154,0.004130217,9.6553822,-0.42822701,0.99519199,0.73977798,-0.071916997,-0.66718,-0.049249999,-0.38854522,-1.4631878,0.21672748
4770125088160,1.0660589,0,,-2.7925267e-06,0.0028675759,0.00080756387,9.7227354,-0.47793099,0.95826203,0.739784,-0.071925998,-0.66717303,-0.049251001,-0.38860261,-1.4631657,0.21677129
4770127136320,1.0681071,0,,-2.7925267e-06,0.0028675759,0.00080756387,9.7227354,-0.47793099,0.95826203,0.739784,-0.071925998,-0.66717303,-0.049251001,-0.38860261,-1.4631657,0.21677129
4770129103296,1.0700741,0,,-2.7925267e-06,0.0028675759,0.00080756387,9.7227354,-0.47793099,0.95826203,0.739784,-0.071925998,-0.66717303,-0.049251001,-0.38860261,-1.4631657,0.21677129
4770131198880,1.0721697,0,,-0.0035612745,0.001970756,-0.0037655652,9.9103279,-0.45134699,1.0171419,0.73978597,-0.071926996,-0.66716999,-0.049247,-0.38863476,-1.4631591,0.21680816
4770133168992,1.0741398,0,,-0.0035612745,0.001970756,-0.0037655652,9.9103279,-0.45134699,1.0171419,0.73978597,-0.071926996,-0.66716999,-0.049247,-0.38863476,-1.4631591,0.21680816
4770135318880,1.0762897,0,,-0.0035612745,0.001970756,-0.0037655652,9.9103279,-0.45134699,1.0171419,0.73978597,-0.071926996,-0.66716999,-0.049247,-0.38863476,-1.4631591,0.21680816
4770137105760,1.0780765,0,,0.0037701903,-0.0010421187,-0.0035957273,9.9729557,-0.46832699,1.012424,0.73978698,-0.07192,-0.66716999,-0.049252,-0.38847734,-1.4631601,0.21665356
4770139072032,1.0800428,0,,0.0037701903,-0.0010421187,-0.0035957273,9.9729557,-0.46832699,1.012424,0.73978698,-0.07192,-0.66716999,-0.049252,-0.38847734,-1.4631601,0.21665356
4770141065536,1.0820363,0,,0.0029587694,-0.00017638298,-0.0069670926,9.9477634,-0.469087,0.983895,0.739788,-0.071902998,-0.667171,-0.049247,-0.38831505,-1.4631673,0.21652182
4770143078144,1.0840489,0,,0.0029587694,-0.00017638298,-0.0069670926,9.9477634,-0.469087,0.983895,0.739788,-0.071902998,-0.667171,-0.049247,-0.38831505,-1.4631673,0.21652182
4770145058880,1.0860297,0,,-0.0034697668,-0.0036424322,-0.011481194,9.8607311,-0.395174,1.0141929,0.73978299,-0.071884997,-0.66717798,-0.049259,-0.38798728,-1.4631945,0.21620339
4770147080288,1.0880511,0,,-0.0034697668,-0.0036424322,-0.011481194,9.8607311,-0.395174,1.0141929,0.73978299,-0.071884997,-0.66717798,-0.049259,-0.38798728,-1.4631945,0.21620339
4770149068928,1.0900397,0,,-0.0034697668,-0.0036424322,-0.011481194,9.8607311,-0.395174,1.0141929,0.73978299,-0.071884997,-0.66717798,-0.049259,-0.38798728,-1.4631945,0.21620339
4770151108768,1.0920796,0,,0.0010527826,-0.0048003011,-0.0085121978,9.7282686,-0.30175599,1.017621,0.73977697,-0.071873002,-0.667184,-0.049281001,-0.38760692,-1.4632302,0.21580831
4770153092032,1.0940628,0,,0.0010527826,-0.0048003011,-0.0085121978,9.7282686,-0.30175599,1.017621,0.73977697,-0.071873002,-0.667184,-0.049281001,-0.38760692,-1.4632302,0.21580831
4770155250912,1.0962217,0,,0.0010527826,-0.0048003011,-0.0085121978,9.7282686,-0.30175599,1.017621,0.73977697,-0.071873002,-0.667184,-0.049281001,-0.38760692,-1.4632302,0.21580831
4770157117504,1.0980883,0,,-0.00010613347,-0.00074551736,-0.0039434841,9.5954037,-0.275051,1.017741,0.73977101,-0.071865,-0.667189,-0.049307,-0.38724213,-1.4632554,0.21541906
4770159101632,1.1000724,0,,-0.00010613347,-0.00074551736,-0.0039434841,9.5954037,-0.275051,1.017741,0.73977101,-0.071865,-0.667189,-0.049307,-0.38724213,-1.4632554,0.21541906
4770161096512,1.1020673,0,,-0.00087435759,0.0013436592,0.0059371561,9.5616808,-0.33139101,0.96942097,0.73977298,-0.071870998,-0.66718501,-0.049320001,-0.38713987,-1.4632499,0.21528856
4770163119872,1.1040907,0,,-0.00087435759,0.0013436592,0.0059371561,9.5616808,-0.33139101,0.96942097,0.73977298,-0.071870998,-0.66718501,-0.049320001,-0.38713987,-1.4632499,0.21528856
4770165092736,1.1060635,0,,-0.00087435759,0.0013436592,0.0059371561,9.5616808,-0.33139101,0.96942097,0.73977298,-0.071870998,-0.66718501,-0.049320001,-0.38713987,-1.4632499,0.21528856
4770167217632,1.1081884,0,,-0.004721639,0.0008286823,0.0049446397,9.637867,-0.477521,0.98104501,0.73977602,-0.071888,-0.66718,-0.049323998,-0.38729616,-1.4632334,0.21541503
4770168996512,1.1099673,0,,-0.004721639,0.0008286823,0.0049446397,9.637867,-0.477521,0.98104501,0.73977602,-0.071888,-0.66718,-0.049323998,-0.38729616,-1.4632334,0.21541503
4770171041824,1.1120126,0,,-0.0010532364,-0.0032237105,-0.0014938098,9.805645,-0.51936001,1.025974,0.739775,-0.071897998,-0.66718,-0.049316999,-0.38750931,-1.463229,0.21562548
4770173127936,1.1140987,0,,-0.0010532364,-0.0032237105,-0.0014938098,9.805645,-0.51936001,1.025974,0.739775,-0.071897998,-0.66718,-0.049316999,-0.38750931,-1.463229,0.21562548
4770175164416,1.1161352,0,,0.0065042659,-0.0013364161,-0.0079151379,9.8966208,-0.497354,0.99505299,0.739775,-0.071878001,-0.66718298,-0.049307,-0.38737529,-1.4632372,0.21553257
4770177077728,1.1180485,0,,0.0065042659,-0.0013364161,-0.0079151379,9.8966208,-0.497354,0.99505299,0.739775,-0.071878001,-0.66718298,-0.049307,-0.38737529,-1.4632372,0.21553257
4770179105440,1.1200762,0,,0.0065042659,-0.0013364161,-0.0079151379,9.8966208,-0.497354,0.99505299,0.739775,-0.071878001,-0.66718298,-0.049307,-0.38737529,-1.4632372,0.21553257
4770181097408,1.1220682,0,,0.0044847804,-0.0029574778,-0.0073831964,9.8033905,-0.47384399,0.98052198,0.73977298,-0.071851,-0.667189,-0.049300998,-0.38712712,-1.4632551,0.21533125
4770183084960,1.1240557,0,,0.0044847804,-0.0029574778,-0.0073831964,9.8033905,-0.47384399,0.98052198,0.73977298,-0.071851,-0.667189,-0.049300998,-0.38712712,-1.4632551,0.21533125
4770185077344,1.1260481,0,,0.0044847804,-0.0029574778,-0.0073831964,9.8033905,-0.47384399,0.98052198,0.73977298,-0.071851,-0.667189,-0.049300998,-0.38712712,-1.4632551,0.21533125
4770187078144,1.1280489,0,,0.0013486682,-0.0016614313,-0.0086439177,9.7054615,-0.33910701,1.003934,0.73976898,-0.071833,-0.66719502,-0.049302001,-0.38691247,-1.4632772,0.21514139
4770189076416,1.1300472,0,,0.0013486682,-0.0016614313,-0.0086439177,9.7054615,-0.33910701,1.003934,0.73976898,-0.071833,-0.66719502,-0.049302001,-0.38691247,-1.4632772,0.21514139
4770191110336,1.1320811,0,,0.0053619654,0.0022132694,-0.0079229396,9.7534456,-0.18484899,1.024861,0.73977101,-0.071814001,-0.66719401,-0.049320001,-0.3864289,-1.4632905,0.21465839
4770193071072,1.1340419,0,,0.0053619654,0.0022132694,-0.0079229396,9.7534456,-0.18484899,1.024861,0.73977101,-0.071814001,-0.66719401,-0.049320001,-0.3864289,-1.4632905,0.21465839
4770195268896,1.1362397,0,,0.0053619654,0.0022132694,-0.0079229396,9.7534456,-0.18484899,1.024861,0.73977101,-0.071814001,-0.66719401,-0.049320001,-0.3864289,-1.4632905,0.21465839
4770197096960,1.1380677,0,,0.0010064441,0.005181673,-0.0006499955,9.7297649,-0.305098,1.009758,0.73977602,-0.071806997,-0.66718602,-0.049352001,-0.38590502,-1.4632884,0.21409881
4770199074976,1.1400458,0,,0.0010064441,0.005181673,-0.0006499955,9.7297649,-0.305098,1.009758,0.73977602,-0.071806997,-0.66718602,-0.049352001,-0.38590502,-1.4632884,0.21409881
4770201108832,1.1420796,0,,0.00098363263,-0.0026782251,0.0078329154,9.7854366,-0.44855401,0.97483701,0.73978299,-0.071813002,-0.66717899,-0.049355,-0.38588755,-1.4632684,0.21406965
4770203070016,1.1440408,0,,0.00098363263,-0.0026782251,0.0078329154,9.7854366,-0.44855401,0.97483701,0.73978299,-0.071813002,-0.66717899,-0.049355,-0.38588755,-1.4632684,0.21406965
4770205070976,1.1460418,0,,0.00098363263,-0.0026782251,0.0078329154,9.7854366,-0.44855401,0.97483701,0.73978299,-0.071813002,-0.66717899,-0.049355,-0.38588755,-1.4632684,0.21406965
4770207099264,1.14807,0,,0.00089313736,-0.004632732,0.0071754673,9.8764372,-0.46753499,0.97725701,0.73977798,-0.071824998,-0.667184,-0.049334001,-0.38634445,-1.4632672,0.21453795
4770209111200,1.150082,0,,0.00089313736,-0.004632732,0.0071754673,9.8764372,-0.46753499,0.97725701,0.73977798,-0.071824998,-0.667184,-0.049334001,-0.38634445,-1.4632672,0.21453795
4770211156832,1.1521276,0,,-7.3042029e-05,0.00052401765,-0.0013576916,9.6222782,-0.302001,1.009853,0.739775,-0.071828,-0.66718799,-0.049320001,-0.38657195,-1.4632677,0.21478274
4770213105024,1.1540758,0,,-7.3042029e-05,0.00052401765,-0.0013576916,9.6222782,-0.302001,1.009853,0.739775,-0.071828,-0.66718799,-0.049320001,-0.38657195,-1.4632677,0.21478274
4770215249504,1.1562203,0,,0.0061193335,0.00066022312,-0.0056192969,9.4549799,-0.35284799,0.95373601,0.73977697,-0.071818002,-0.66718501,-0.049336001,-0.38623506,-1.4632744,0.2144371
4770217105952,1.1580767,0,,0.0061193335,0.00066022312,-0.0056192969,9.4549799,-0.35284799,0.95373601,0.73977697,-0.071818002,-0.66718501,-0.049336001,-0.38623506,-1.4632744,0.2144371
4770219090208,1.160061,0,,0.0061193335,0.00066022312,-0.0056192969,9.4549799,-0.35284799,0.95373601,0.73977697,-0.071818002,-0.66718501,-0.049336001,-0.38623506,-1.4632744,0.2144371
4770221087488,1.1620583,0,,0.0042288629,-0.00279223,-0.00029517009,9.7508154,-0.45357701,0.931512,0.73977697,-0.071804002,-0.66718698,-0.049339,-0.38602314,-1.463284,0.21424129
4770223126272,1.1640971,0,,0.0042288629,-0.00279223,-0.00029517009,9.7508154,-0.45357701,0.931512,0.73977697,-0.071804002,-0.66718698,-0.049339,-0.38602314,-1.463284,0.21424129
4770225126848,1.1660976,0,,0.0042288629,-0.00279223,-0.00029517009,9.7508154,-0.45357701,0.931512,0.73977697,-0.071804002,-0.66718698,-0.049339,-0.38602314,-1.463284,0.21424129
4770227089888,1.1680607,0,,0.0055734297,0.00096719164,-0.00060091688,9.9816694,-0.38673401,1.01377,0.73977399,-0.071795002,-0.66719198,-0.049323,-0.38611621,-1.4632917,0.2143692
4770229101344,1.1700721,0,,0.0055734297,0.00096719164,-0.00060091688,9.9816694,-0.38673401,1.01377,0.73977399,-0.071795002,-0.66719198,-0.049323,-0.38611621,-1.4632917,0.2143692
4770231083936,1.1720547,0,,0.0056723375,0.0028186892,-0.0068354248,10.063195,-0.57652402,1.038568,0.739779,-0.071779996,-0.667189,-0.049325,-0.38586285,-1.4632868,0.214135
4770233190368,1.1741612,0,,0.0056723375,0.0028186892,-0.0068354248,10.063195,-0.57652402,1.038568,0.739779,-0.071779996,-0.667189,-0.049325,-0.38586285,-1.4632868,0.214135
4770235274304,1.1762451,0,,0.0016687093,0.0046704137,-0.010285574,10.020621,-0.57802302,1.020354,0.73978698,-0.071751997,-0.66718298,-0.049318001,-0.38552566,-1.4632807,0.21384799
4770237101408,1.1780722,0,,0.0016687093,0.0046704137,-0.010285574,10.020621,-0.57802302,1.020354,0.73978698,-0.071751997,-0.66718298,-0.049318001,-0.38552566,-1.4632807,0.21384799
4770239083136,1.1800539,0,,0.0016687093,0.0046704137,-0.010285574,10.020621,-0.57802302,1.020354,0.73978698,-0.071751997,-0.66718298,-0.049318001,-0.38552566,-1.4632807,0.21384799
4770241079648,1.1820504,0,,-0.0014409613,-0.001582682,-0.0089437126,9.7724886,-0.15248901,1.0235471,0.739793,-0.071727999,-0.66717899,-0.049314998,-0.38520458,-1.4632724,0.21356355
4770242930496,1.1839013,0,,-0.0014409613,-0.001582682,-0.0089437126,9.7724886,-0.15248901,1.0235471,0.739793,-0.071727999,-0.66717899,-0.049314998,-0.38520458,-1.4632724,0.21356355
4770245073728,1.1860445,0,,-0.0014409613,-0.001582682,-0.0089437126,9.7724886,-0.15248901,1.0235471,0.739793,-0.071727999,-0.66717899,-0.049314998,-0.38520458,-1.4632724,0.21356355
4770247074688,1.1880455,0,,-0.00051707126,-0.0051617763,-0.0039691056,9.4826469,-0.213269,0.99430597,0.73978597,-0.071726002,-0.66718298,-0.049361002,-0.38467188,-1.4633073,0.21296773
4770249094400,1.1900652,0,,-0.00051707126,-0.0051617763,-0.0039691056,9.4826469,-0.213269,0.99430597,0.73978597,-0.071726002,-0.66718298,-0.049361002,-0.38467188,-1.4633073,0.21296773
4770251074880,1.1920457,0,,0.0030540468,-0.0036185038,0.0090667236,9.3547077,-0.224842,1.01293,0.73978102,-0.071732998,-0.66718799,-0.049373999,-0.38464582,-1.4633222,0.21291392
4770253092192,1.194063,0,,0.0030540468,-0.0036185038,0.0090667236,9.3547077,-0.224842,1.01293,0.73978102,-0.071732998,-0.66718799,-0.049373999,-0.38464582,-1.4633222,0.21291392
4770255259616,1.1962304,0,,-0.00087681848,-0.0024247161,0.014037212,9.2071333,-0.23690499,0.92732197,0.739779,-0.071755998,-0.66718799,-0.049373001,-0.38497185,-1.4633161,0.21320926
4770257065600,1.1980364,0,,-0.00087681848,-0.0024247161,0.014037212,9.2071333,-0.23690499,0.92732197,0.739779,-0.071755998,-0.66718799,-0.049373001,-0.38497185,-1.4633161,0.21320926
4770259068672,1.2000395,0,,-0.00087681848,-0.0024247161,0.014037212,9.2071333,-0.23690499,0.92732197,0.739779,-0.071755998,-0.66718799,-0.049373001,-0.38497185,-1.4633161,0.21320926
4770261064960,1.2020357,0,,0.0017774608,-0.00084603088,0.015077359,9.411869,-0.40593001,0.899616,0.73977697,-0.071783997,-0.66718698,-0.049362,-0.38547985,-1.4632994,0.2136926
4770263063520,1.2040343,0,,0.0017774608,-0.00084603088,0.015077359,9.411869,-0.40593001,0.899616,0.73977697,-0.071783997,-0.66718698,-0.049362,-0.38547985,-1.4632994,0.2136926
4770265142048,1.2061128,0,,0.0017774608,-0.00084603088,0.015077359,9.411869,-0.40593001,0.899616,0.73977697,-0.071783997,-0.66718698,-0.049362,-0.38547985,-1.4632994,0.2136926
4770267107168,1.208078,0,,0.00168995,-0.0015479151,0.014247001,9.7443953,-0.41865999,0.93944198,0.73977697,-0.071806997,-0.66718799,-0.049329001,-0.38618526,-1.4632807,0.21441325
4770269091072,1.2100619,0,,0.00168995,-0.0015479151,0.014247001,9.7443953,-0.41865999,0.93944198,0.73977697,-0.071806997,-0.66718799,-0.049329001,-0.38618526,-1.4632807,0.21441325
4770271108448,1.2120792,0,,-0.00091153314,-0.0023872612,0.0046402721,10.04834,-0.53027201,0.95567501,0.73977399,-0.071819,-0.66719097,-0.049309,-0.38660457,-1.4632751,0.21484255
4770273090080,1.2140609,0,,-0.00091153314,-0.0023872612,0.0046402721,10.04834,-0.53027201,0.95567501,0.73977399,-0.071819,-0.66719097,-0.049309,-0.38660457,-1.4632751,0.21484255
4770275242432,1.2162132,0,,0.00085250608,0.00039660863,-0.0039883391,10.264227,-0.58575302,0.99244797,0.73977101,-0.071818002,-0.66719502,-0.049295999,-0.38677212,-1.4632795,0.21503013
4770277135584,1.2181064,0,,0.00085250608,0.00039660863,-0.0039883391,10.264227,-0.58575302,0.99244797,0.73977101,-0.071818002,-0.66719502,-0.049295999,-0.38677212,-1.4632795,0.21503013
4770279102816,1.2200736,0,,0.00085250608,0.00039660863,-0.0039883391,10.264227,-0.58575302,0.99244797,0.73977101,-0.071818002,-0.66719502,-0.049295999,-0.38677212,-1.4632795,0.21503013
4770281095264,1.222066,0,,-0.00088170541,0.00046352455,-0.0040062463,10.076553,-0.30987,1.0152431,0.73977298,-0.071805,-0.66719502,-0.049286,-0.38670967,-1.4632783,0.21500062
4770283095392,1.2240662,0,,-0.00088170541,0.00046352455,-0.0040062463,10.076553,-0.30987,1.0152431,0.73977298,-0.071805,-0.66719502,-0.049286,-0.38670967,-1.4632783,0.21500062
4770285092384,1.2260632,0,,-0.00088170541,0.00046352455,-0.0040062463,10.076553,-0.30987,1.0152431,0.73977298,-0.071805,-0.66719502,-0.049286,-0.38670967,-1.4632783,0.21500062
4770287092128,1.2280629,0,,-0.0032812015,-0.00097076955,0.0012173148,10.005555,-0.285851,0.94414902,0.73977101,-0.071810998,-0.66719502,-0.049309,-0.38651965,-1.4632898,0.21476951
4770289084928,1.2300557,0,,-0.0032812015,-0.00097076955,0.0012173148,10.005555,-0.285851,0.94414902,0.73977101,-0.071810998,-0.66719502,-0.049309,-0.38651965,-1.4632898,0.21476951
4770291087072,1.2320579,0,,0.0029501648,0.0039162047,0.0044451441,10.07673,-0.29185501,0.99436802,0.73976898,-0.071819,-0.66719502,-0.049322002,-0.38648243,-1.4632929,0.2147019
4770293198880,1.2341697,0,,0.0029501648,0.0039162047,0.0044451441,10.07673,-0.29185501,0.99436802,0.73976898,-0.071819,-0.66719502,-0.049322002,-0.38648243,-1.4632929,0.2147019
4770295424992,1.2363958,0,,0.0029501648,0.0039162047,0.0044451441,10.07673,-0.29185501,0.99436802,0.73976898,-0.071819,-0.66719502,-0.049322002,-0.38648243,-1.4632929,0.2147019
4770297121056,1.2380918,0,,0.0030259297,0.0041668339,0.0056017913,9.7914867,-0.286908,1.068518,0.73977697,-0.071827002,-0.66718501,-0.049323,-0.38651722,-1.4632639,0.21472454
4770299083328,1.2400541,0,,0.0030259297,0.0041668339,0.0056017913,9.7914867,-0.286908,1.068518,0.73977697,-0.071827002,-0.66718501,-0.049323,-0.38651722,-1.4632639,0.21472454
4770301120416,1.2420912,0,,0.0005109626,0.0022187323,0.0024600241,9.5895882,-0.474828,0.92503101,0.73978597,-0.071833,-0.66717499,-0.049327999,-0.38645017,-1.463239,0.21464175
4770303079168,1.24405,0,,0.0005109626,0.0022187323,0.0024600241,9.5895882,-0.474828,0.92503101,0.73978597,-0.071833,-0.66717499,-0.049327999,-0.38645017,-1.463239,0.21464175
4770305069440,1.2460402,0,,-0.0028260719,0.000852541,0.0021797243,9.4910259,-0.61870301,0.84261101,0.73979002,-0.071834996,-0.667171,-0.049316,-0.38659508,-1.4632234,0.2148002
4770307105600,1.2480764,0,,-0.0028260719,0.000852541,0.0021797243,9.4910259,-0.61870301,0.84261101,0.73979002,-0.071834996,-0.667171,-0.049316,-0.38659508,-1.4632234,0.2148002
4770309080160,1.2500509,0,,-0.0028260719,0.000852541,0.0021797243,9.4910259,-0.61870301,0.84261101,0.73979002,-0.071834996,-0.667171,-0.049316,-0.38659508,-1.4632234,0.2148002
4770311071040,1.2520418,0,,-0.0045465653,-0.0050164426,-0.0034788949,9.2947302,-0.200321,1.03329,0.73978102,-0.071838997,-0.66718102,-0.049298,-0.38693447,-1.463239,0.21516115
4770313069472,1.2540403,0,,-0.0045465653,-0.0050164426,-0.0034788949,9.2947302,-0.200321,1.03329,0.73978102,-0.071838997,-0.66718102,-0.049298,-0.38693447,-1.463239,0.21516115
4770315272960,1.2562437,0,,-0.0045465653,-0.0050164426,-0.0034788949,9.2947302,-0.200321,1.03329,0.73978102,-0.071838997,-0.66718102,-0.049298,-0.38693447,-1.463239,0.21516115
4770317079392,1.2580502,0,,-0.00022209315,0.0010817202,-0.0010902374,9.1179113,-0.165893,1.036937,0.73978001,-0.071843997,-0.66718,-0.04933,-0.38661512,-1.463249,0.21478817
4770319064192,1.260035,0,,-0.00022209315,0.0010817202,-0.0010902374,9.1179113,-0.165893,1.036937,0.73978001,-0.071843997,-0.66718,-0.04933,-0.38661512,-1.463249,0.21478817
4770321059776,1.2620306,0,,-0.0018859504,0.0018938393,0.0089494374,9.5022507,-0.37473199,0.85088199,0.73978698,-0.071855001,-0.66716897,-0.049353,-0.38641232,-1.4632302,0.21453687
4770323116640,1.2640874,0,,-0.0018859504,0.0018938393,0.0089494374,9.5022507,-0.37473199,0.85088199,0.73978698,-0.071855001,-0.66716897,-0.049353,-0.38641232,-1.4632302,0.21453687
4770325091328,1.2660621,0,,-0.0018859504,0.0018938393,0.0089494374,9.5022507,-0.37473199,0.85088199,0.73978698,-0.071855001,-0.66716897,-0.049353,-0.38641232,-1.4632302,0.21453687
4770327090496,1.2680613,0,,-0.0013897882,0.0048946539,0.016892029,9.9492464,-0.29315099,0.99242097,0.73978901,-0.071882002,-0.66716599,-0.049334001,-0.38699456,-1.4632033,0.21510788
4770329145536,1.2701163,0,,-0.0013897882,0.0048946539,0.016892029,9.9492464,-0.29315099,0.99242097,0.73978901,-0.071882002,-0.66716599,-0.049334001,-0.38699456,-1.4632033,0.21510788
4770330956160,1.2719269,0,,0.0013457012,0.0056519519,0.0099874543,10.192159,-0.338498,1.146437,0.73979998,-0.071907997,-0.66715097,-0.049323998,-0.38734676,-1.463153,0.2154365
4770333151040,1.2741218,0,,0.0013457012,0.0056519519,0.0099874543,10.192159,-0.338498,1.146437,0.73979998,-0.071907997,-0.66715097,-0.049323998,-0.38734676,-1.463153,0.2154365
4770335286496,1.2762573,0,,0.00085233151,-0.00051162582,0.009603517,10.199931,-0.63161898,1.014708,0.73980999,-0.071924001,-0.66713899,-0.049316999,-0.38755329,-1.463113,0.21563161
4770337094144,1.2780649,0,,0.00085233151,-0.00051162582,0.009603517,10.199931,-0.63161898,1.014708,0.73980999,-0.071924001,-0.66713899,-0.049316999,-0.38755329,-1.463113,0.21563161
4770339085120,1.2800559,0,,0.00085233151,-0.00051162582,0.009603517,10.199931,-0.63161898,1.014708,0.73980999,-0.071924001,-0.66713899,-0.049316999,-0.38755329,-1.463113,0.21563161
4770341097312,1.2820681,0,,-0.0063239215,-0.0074382615,0.0088688736,10.208138,-0.69392997,0.956622,0.739806,-0.071939997,-0.667144,-0.049279999,-0.38823969,-1.4631051,0.21634773
4770343086240,1.284057,0,,-0.0063239215,-0.0074382615,0.0088688736,10.208138,-0.69392997,0.956622,0.739806,-0.071939997,-0.667144,-0.049279999,-0.38823969,-1.4631051,0.21634773
4770345076640,1.2860474,0,,-0.0063239215,-0.0074382615,0.0088688736,10.208138,-0.69392997,0.956622,0.739806,-0.071939997,-0.667144,-0.049279999,-0.38823969,-1.4631051,0.21634773
4770347077504,1.2880483,0,,3.382448e-05,-0.0019789764,0.00055817373,10.078442,-0.45863801,0.97584802,0.73979801,-0.071948998,-0.66715503,-0.049245,-0.38885121,-1.4631125,0.21699625
4770349076480,1.2900473,0,,3.382448e-05,-0.0019789764,0.00055817373,10.078442,-0.45863801,0.97584802,0.73979801,-0.071948998,-0.66715503,-0.049245,-0.38885121,-1.4631125,0.21699625
4770351074240,1.292045,0,,-0.0036244379,-0.0015831183,-0.00059892718,9.9526396,-0.45107698,1.049438,0.739793,-0.071951002,-0.66715997,-0.049242999,-0.38893527,-1.4631235,0.21707972
4770353072544,1.2940433,0,,-0.0036244379,-0.0015831183,-0.00059892718,9.9526396,-0.45107698,1.049438,0.739793,-0.071951002,-0.66715997,-0.049242999,-0.38893527,-1.4631235,0.21707972
4770355267104,1.2962379,0,,-0.0036244379,-0.0015831183,-0.00059892718,9.9526396,-0.45107698,1.049438,0.739793,-0.071951002,-0.66715997,-0.049242999,-0.38893527,-1.4631235,0.21707972
4770357079872,1.2980507,0,,-0.0064212933,-0.0028851514,-0.0024619091,9.6136055,-0.42961699,1.002193,0.73979098,-0.071956001,-0.66716099,-0.049252,-0.38890641,-1.4631295,0.2170313
4770359072224,1.300043,0,,-0.0064212933,-0.0028851514,-0.0024619091,9.6136055,-0.42961699,1.002193,0.73979098,-0.071956001,-0.66716099,-0.049252,-0.38890641,-1.4631295,0.2170313
4770361068992,1.3020398,0,,-0.0045254816,-0.00258115,-0.003376863,9.26723,-0.175574,0.92342901,0.73978698,-0.071961999,-0.66716498,-0.049265001,-0.38887555,-1.4631418,0.21697236
4770363072096,1.3040429,0,,-0.0045254816,-0.00258115,-0.003376863,9.26723,-0.175574,0.92342901,0.73978698,-0.071961999,-0.66716498,-0.049265001,-0.38887555,-1.4631418,0.21697236
4770365062496,1.3060333,0,,-0.0045254816,-0.00258115,-0.003376863,9.26723,-0.175574,0.92342901,0.73978698,-0.071961999,-0.66716498,-0.049265001,-0.38887555,-1.4631418,0.21697236
4770367091584,1.3080624,0,,0.0023903156,0.00079583524,0.0051884448,9.3092108,-0.17448699,0.87594098,0.739784,-0.071970999,-0.66716498,-0.049291998,-0.38867728,-1.4631552,0.21672274
4770369063328,1.3100341,0,,0.0023903156,0.00079583524,0.0051884448,9.3092108,-0.17448699,0.87594098,0.739784,-0.071970999,-0.66716498,-0.049291998,-0.38867728,-1.4631552,0.21672274
4770371105600,1.3120764,0,,-0.0042661955,0.00014720108,0.0076435475,9.6922359,-0.44648999,1.0169441,0.73978299,-0.071988001,-0.66716301,-0.049307998,-0.38870404,-1.4631518,0.21670355
4770373098496,1.3140693,0,,-0.0042661955,0.00014720108,0.0076435475,9.6922359,-0.44648999,1.0169441,0.73978299,-0.071988001,-0.66716301,-0.049307998,-0.38870404,-1.4631518,0.21670355
