t_recv_ns,t_s,t_stamp_ns,frame_id,angular_velocity.x,angular_velocity.y,angular_velocity.z,linear_acceleration.x,linear_acceleration.y,linear_acceleration.z,quaternion.w,quaternion.x,quaternion.y,quaternion.z,rpy.x,rpy.y,rpy.z
2834780008288,0,0,,-0.0022686138,-0.027586779,-0.037818702,9.1192045,-0.38872501,0.70359302,0.73527902,-0.034541,-0.67671198,-0.015237,-0.35362355,-1.4835602,0.28314422
2834780066176,5.7888e-05,0,,0.0014037509,-0.0094267674,-0.045515658,9.063796,-0.22003201,0.55396903,0.73524499,-0.034476999,-0.67675,-0.015313,-0.35184965,-1.4837197,0.28135332
2834781676224,0.001667936,0,,0.0014037509,-0.0094267674,-0.045515658,9.063796,-0.22003201,0.55396903,0.73524499,-0.034476999,-0.67675,-0.015313,-0.35184965,-1.4837197,0.28135332
2834783636448,0.00362816,0,,0.0035738584,-0.00093013833,-0.034243377,9.1895065,0.211619,0.63927197,0.735228,-0.034405001,-0.67676997,-0.015391,-0.34971277,-1.4838336,0.27920814
2834785625696,0.005617408,0,,0.0035738584,-0.00093013833,-0.034243377,9.1895065,0.211619,0.63927197,0.735228,-0.034405001,-0.67676997,-0.015391,-0.34971277,-1.4838336,0.27920814
2834787693728,0.00768544,0,,0.0035738584,-0.00093013833,-0.034243377,9.1895065,0.211619,0.63927197,0.735228,-0.034405001,-0.67676997,-0.015391,-0.34971277,-1.4838336,0.27920814
2834789679488,0.0096712,0,,-0.00023071507,-0.0021470691,-0.020053834,9.4638348,0.044932,0.81308401,0.73522002,-0.034338001,-0.67677999,-0.015465,-0.34763593,-1.4839182,0.27712092
2834791669440,0.011661152,0,,-0.00023071507,-0.0021470691,-0.020053834,9.4638348,0.044932,0.81308401,0.73522002,-0.034338001,-0.67677999,-0.015465,-0.34763593,-1.4839182,0.27712092
2834793835040,0.013826752,0,,0.0036363062,-0.0068158948,0.0044129952,9.6132088,-0.051431999,0.82341999,0.73521298,-0.034308001,-0.67678899,-0.015492,-0.34682364,-1.4839657,0.27631438
2834795684480,0.015676192,0,,0.0036363062,-0.0068158948,0.0044129952,9.6132088,-0.051431999,0.82341999,0.73521298,-0.034308001,-0.67678899,-0.015492,-0.34682364,-1.4839657,0.27631438
2834797669696,0.017661408,0,,0.0036363062,-0.0068158948,0.0044129952,9.6132088,-0.051431999,0.82341999,0.73521298,-0.034308001,-0.67678899,-0.015492,-0.34682364,-1.4839657,0.27631438
2834799671712,0.019663424,0,,0.0080138715,-0.0015802559,0.0089434338,9.7970228,-0.193381,0.716389,0.73520702,-0.034297999,-0.67679602,-0.015478,-0.34693322,-1.4839821,0.2764559
2834801669760,0.021661472,0,,0.0080138715,-0.0015802559,0.0089434338,9.7970228,-0.193381,0.716389,0.73520702,-0.034297999,-0.67679602,-0.015478,-0.34693322,-1.4839821,0.2764559
2834803680032,0.023671744,0,,0.004593375,-0.0010884921,0.0037090864,9.9820118,-0.52508801,0.68436497,0.73520398,-0.034295,-0.67680001,-0.01546,-0.34719917,-1.4839847,0.27675307
2834805696256,0.025687968,0,,0.004593375,-0.0010884921,0.0037090864,9.9820118,-0.52508801,0.68436497,0.73520398,-0.034295,-0.67680001,-0.01546,-0.34719917,-1.4839847,0.27675307
2834807659200,0.027650912,0,,0.004593375,-0.0010884921,0.0037090864,9.9820118,-0.52508801,0.68436497,0.73520398,-0.034295,-0.67680001,-0.01546,-0.34719917,-1.4839847,0.27675307
2834809655552,0.029647264,0,,-0.0072838522,-0.0075052998,-0.0058903989,9.8692608,-0.48931101,0.79465801,0.73519099,-0.034309,-0.67681402,-0.015464,-0.34749562,-1.4840179,0.27702443
2834811682240,0.031673952,0,,-0.0072838522,-0.0075052998,-0.0058903989,9.8692608,-0.48931101,0.79465801,0.73519099,-0.034309,-0.67681402,-0.015464,-0.34749562,-1.4840179,0.27702443
2834813843584,0.033835296,0,,-0.00026296876,-0.001707508,-0.0015788423,9.8398399,-0.119169,0.76777899,0.73518199,-0.034320999,-0.67682302,-0.015469,-0.34768816,-1.4840392,0.27719183
2834815652864,0.035644576,0,,-0.00026296876,-0.001707508,-0.0015788423,9.8398399,-0.119169,0.76777899,0.73518199,-0.034320999,-0.67682302,-0.015469,-0.34768816,-1.4840392,0.27719183
2834817644160,0.037635872,0,,-0.00026296876,-0.001707508,-0.0015788423,9.8398399,-0.119169,0.76777899,0.73518199,-0.034320999,-0.67682302,-0.015469,-0.34768816,-1.4840392,0.27719183
2834819667200,0.039658912,0,,0.0037359471,-0.0010370222,-0.0083603191,10.061843,-0.113065,0.81976902,0.73518002,-0.034304999,-0.676826,-0.015485,-0.34723306,-1.4840604,0.27673831
2834821653728,0.04164544,0,,0.0037359471,-0.0010370222,-0.0083603191,10.061843,-0.113065,0.81976902,0.73518002,-0.034304999,-0.676826,-0.015485,-0.34723306,-1.4840604,0.27673831
2834823656000,0.043647712,0,,-8.901179e-07,-0.0086139503,-0.0036106324,9.8099546,-0.36587501,0.99533802,0.73517102,-0.034279998,-0.67683601,-0.015504,-0.34664926,-1.4841038,0.27616143
2834825647456,0.045639168,0,,-8.901179e-07,-0.0086139503,-0.0036106324,9.8099546,-0.36587501,0.99533802,0.73517102,-0.034279998,-0.67683601,-0.015504,-0.34664926,-1.4841038,0.27616143
2834827645216,0.047636928,0,,-8.901179e-07,-0.0086139503,-0.0036106324,9.8099546,-0.36587501,0.99533802,0.73517102,-0.034279998,-0.67683601,-0.015504,-0.34664926,-1.4841038,0.27616143
2834829674208,0.04966592,0,,0.0018253177,-0.0061035387,-0.0084344257,10.063793,-0.58405602,0.78717202,0.73516601,-0.03427,-0.67684197,-0.015508,-0.34647296,-1.4841252,0.2759952
2834831642400,0.051634112,0,,0.0018253177,-0.0061035387,-0.0084344257,10.063793,-0.58405602,0.78717202,0.73516601,-0.03427,-0.67684197,-0.015508,-0.34647296,-1.4841252,0.2759952
2834833868992,0.053860704,0,,0.0018253177,-0.0061035387,-0.0084344257,10.063793,-0.58405602,0.78717202,0.73516601,-0.03427,-0.67684197,-0.015508,-0.34647296,-1.4841252,0.2759952
2834835655360,0.055647072,0,,-0.0026774048,-0.008912175,-0.015316765,9.9426022,-0.56964803,0.86476201,0.73515302,-0.034260999,-0.67685598,-0.015519,-0.3462945,-1.48417,0.27581218
2834837657504,0.057649216,0,,-0.0026774048,-0.008912175,-0.015316765,9.9426022,-0.56964803,0.86476201,0.73515302,-0.034260999,-0.67685598,-0.015519,-0.3462945,-1.48417,0.27581218
2834839659776,0.059651488,0,,-0.0028520601,-0.011739469,-0.021885433,9.8988733,-0.450831,0.91523802,0.735138,-0.034244001,-0.67687297,-0.015547,-0.34576573,-1.4842333,0.27526907
2834841634848,0.06162656,0,,-0.0028520601,-0.011739469,-0.021885433,9.8988733,-0.450831,0.91523802,0.735138,-0.034244001,-0.67687297,-0.015547,-0.34576573,-1.4842333,0.27526907
2834843659744,0.063651456,0,,0.0065905554,-0.010891064,-0.040118891,10.098575,-0.65011299,0.826635,0.73512399,-0.034187999,-0.67689002,-0.015588,-0.34440345,-1.4843147,0.27392802
2834845675552,0.065667264,0,,0.0065905554,-0.010891064,-0.040118891,10.098575,-0.65011299,0.826635,0.73512399,-0.034187999,-0.67689002,-0.015588,-0.34440345,-1.4843147,0.27392802
2834847657248,0.06764896,0,,0.0065905554,-0.010891064,-0.040118891,10.098575,-0.65011299,0.826635,0.73512399,-0.034187999,-0.67689002,-0.015588,-0.34440345,-1.4843147,0.27392802
2834849655232,0.069646944,0,,-0.001440106,-0.017874388,-0.051772085,9.9572973,-0.53703398,0.88839102,0.735098,-0.034123,-0.67692,-0.015659999,-0.34253425,-1.4844516,0.27204873
2834851671648,0.07166336,0,,-0.001440106,-0.017874388,-0.051772085,9.9572973,-0.53703398,0.88839102,0.735098,-0.034123,-0.67692,-0.015659999,-0.34253425,-1.4844516,0.27204873
2834853807008,0.07379872,0,,0.00058700661,-0.0067662226,-0.049342013,9.6971598,-0.42698801,0.88646197,0.73507798,-0.034045,-0.676943,-0.015742,-0.3402636,-1.4845766,0.26977293
2834855647648,0.07563936,0,,0.00058700661,-0.0067662226,-0.049342013,9.6971598,-0.42698801,0.88646197,0.73507798,-0.034045,-0.676943,-0.015742,-0.3402636,-1.4845766,0.26977293
2834857536160,0.077527872,0,,0.00058700661,-0.0067662226,-0.049342013,9.6971598,-0.42698801,0.88646197,0.73507798,-0.034045,-0.676943,-0.015742,-0.3402636,-1.4845766,0.26977293
2834859644000,0.079635712,0,,-0.013934674,-0.015591497,-0.056407541,9.822072,-0.34924501,0.77403897,0.73506302,-0.033976,-0.676961,-0.015842,-0.33779219,-1.4846917,0.26725695
2834861643392,0.081635104,0,,-0.013934674,-0.015591497,-0.056407541,9.822072,-0.34924501,0.77403897,0.73506302,-0.033976,-0.676961,-0.015842,-0.33779219,-1.4846917,0.26725695
2834863658368,0.08365008,0,,-0.00092605426,-0.012987466,-0.059465778,9.6649675,-0.29617801,0.84536397,0.73503202,-0.033898998,-0.67699498,-0.015965,-0.33499887,-1.4848657,0.26439862
2834865643680,0.085635392,0,,-0.00092605426,-0.012987466,-0.059465778,9.6649675,-0.29617801,0.84536397,0.73503202,-0.033898998,-0.67699498,-0.015965,-0.33499887,-1.4848657,0.26439862
2834867642368,0.08763408,0,,-0.00092605426,-0.012987466,-0.059465778,9.6649675,-0.29617801,0.84536397,0.73503202,-0.033898998,-0.67699498,-0.015965,-0.33499887,-1.4848657,0.26439862
2834869670240,0.089661952,0,,0.014392072,-0.015814027,-0.044190897,9.9125891,-0.062422,0.91140199,0.73501301,-0.03379,-0.67702001,-0.016043,-0.3322607,-1.4850014,0.2617049
2834871747168,0.09173888,0,,0.014392072,-0.015814027,-0.044190897,9.9125891,-0.062422,0.91140199,0.73501301,-0.03379,-0.67702001,-0.016043,-0.3322607,-1.4850014,0.2617049
2834873853056,0.093844768,0,,0.018405439,-0.016234372,-0.038033236,9.6890879,0.044845,0.89989698,0.73498601,-0.033679001,-0.67705297,-0.016097,-0.32989319,-1.4851511,0.25941837
2834875679872,0.095671584,0,,0.018405439,-0.016234372,-0.038033236,9.6890879,0.044845,0.89989698,0.73498601,-0.033679001,-0.67705297,-0.016097,-0.32989319,-1.4851511,0.25941837
2834877662688,0.0976544,0,,0.018405439,-0.016234372,-0.038033236,9.6890879,0.044845,0.89989698,0.73498601,-0.033679001,-0.67705297,-0.016097,-0.32989319,-1.4851511,0.25941837
2834879642880,0.099634592,0,,0.016104659,-0.0080869654,-0.026134124,9.5852146,-0.0071359999,0.73698503,0.734972,-0.033574998,-0.67707199,-0.016139001,-0.32768646,-1.4852571,0.25729949
2834881685056,0.10167677,0,,0.016104659,-0.0080869654,-0.026134124,9.5852146,-0.0071359999,0.73698503,0.734972,-0.033574998,-0.67707199,-0.016139001,-0.32768646,-1.4852571,0.25729949
2834883634176,0.10362589,0,,0.016104659,-0.0080869654,-0.026134124,9.5852146,-0.0071359999,0.73698503,0.734972,-0.033574998,-0.67707199,-0.016139001,-0.32768646,-1.4852571,0.25729949
2834885641824,0.10563354,0,,0.018460958,-0.0050272814,-0.019748679,9.6149616,-0.07034,0.72339398,0.73496097,-0.033493999,-0.67708802,-0.016166,-0.32607491,-1.4853364,0.25576548
2834887642688,0.1076344,0,,0.018460958,-0.0050272814,-0.019748679,9.6149616,-0.07034,0.72339398,0.73496097,-0.033493999,-0.67708802,-0.016166,-0.32607491,-1.4853364,0.25576548
2834889623040,0.10961475,0,,0.012755442,-8.7598072e-05,-0.018074263,9.3762093,-0.32043001,0.67889398,0.73495501,-0.033424001,-0.67709702,-0.016183,-0.32471813,-1.4853917,0.25448302
2834891626784,0.1116185,0,,0.012755442,-8.7598072e-05,-0.018074263,9.3762093,-0.32043001,0.67889398,0.73495501,-0.033424001,-0.67709702,-0.016183,-0.32471813,-1.4853917,0.25448302
2834893843392,0.1138351,0,,-0.0015186459,-0.0039969263,-0.014667643,9.5514736,-0.351731,0.65770298,0.73494899,-0.033388998,-0.67710501,-0.016201999,-0.32392488,-1.485433,0.25371282
2834895630656,0.11562237,0,,-0.0015186459,-0.0039969263,-0.014667643,9.5514736,-0.351731,0.65770298,0.73494899,-0.033388998,-0.67710501,-0.016201999,-0.32392488,-1.485433,0.25371282
2834897625856,0.11761757,0,,-0.0015186459,-0.0039969263,-0.014667643,9.5514736,-0.351731,0.65770298,0.73494899,-0.033388998,-0.67710501,-0.016201999,-0.32392488,-1.485433,0.25371282
2834899640512,0.11963222,0,,-0.013556234,-0.0052922223,-0.020651451,9.5830078,-0.224041,0.71868002,0.73493302,-0.033386,-0.67712098,-0.016248999,-0.32331691,-1.4854953,0.25304231
2834901628096,0.12161981,0,,-0.013556234,-0.0052922223,-0.020651451,9.5830078,-0.224041,0.71868002,0.73493302,-0.033386,-0.67712098,-0.016248999,-0.32331691,-1.4854953,0.25304231
2834903647392,0.1236391,0,,-0.013556234,-0.0052922223,-0.020651451,9.5830078,-0.224041,0.71868002,0.73493302,-0.033386,-0.67712098,-0.016248999,-0.32331691,-1.4854953,0.25304231
2834905755840,0.12574755,0,,0.0038103679,-0.00012889257,-0.034641016,9.994545,-0.240293,0.798868,0.73492599,-0.033349998,-0.67712897,-0.016316,-0.3217803,-1.4855595,0.25146206
2834907665152,0.12765686,0,,0.0038103679,-0.00012889257,-0.034641016,9.994545,-0.240293,0.798868,0.73492599,-0.033349998,-0.67712897,-0.016316,-0.3217803,-1.4855595,0.25146206
2834909661440,0.12965315,0,,-0.00097993255,-0.0095529024,-0.034231195,9.9594631,-0.32467601,0.76790601,0.73491699,-0.033278,-0.67714101,-0.016373999,-0.31979212,-1.4856374,0.24949419
2834911673408,0.13166512,0,,-0.00097993255,-0.0095529024,-0.034231195,9.9594631,-0.32467601,0.76790601,0.73491699,-0.033278,-0.67714101,-0.016373999,-0.31979212,-1.4856374,0.24949419
2834913828000,0.13381971,0,,-0.027447764,-0.018150831,-0.022228636,10.196952,-0.35681599,0.81977201,0.73488897,-0.033261001,-0.67717099,-0.016452,-0.31858174,-1.4857552,0.24819683
2834915659584,0.1356513,0,,-0.027447764,-0.018150831,-0.022228636,10.196952,-0.35681599,0.81977201,0.73488897,-0.033261001,-0.67717099,-0.016452,-0.31858174,-1.4857552,0.24819683
2834917663200,0.13765491,0,,-0.027447764,-0.018150831,-0.022228636,10.196952,-0.35681599,0.81977201,0.73488897,-0.033261001,-0.67717099,-0.016452,-0.31858174,-1.4857552,0.24819683
2834919643936,0.13963565,0,,-0.027447764,-0.018150831,-0.022228636,10.196952,-0.35681599,0.81977201,0.73488897,-0.033261001,-0.67717099,-0.016452,-0.31858174,-1.4857552,0.24819683
2834921643328,0.14163504,0,,-0.027447764,-0.018150831,-0.022228636,10.196952,-0.35681599,0.81977201,0.73488897,-0.033261001,-0.67717099,-0.016452,-0.31858174,-1.4857552,0.24819683
2834923659616,0.14365133,0,,-0.0051416876,-0.0016157385,-0.067413849,10.252631,-0.45177901,0.874668,0.73484999,-0.033241998,-0.67720902,-0.016636999,-0.3157798,-1.485942,0.24516026
2834925642816,0.14563453,0,,-0.0051416876,-0.0016157385,-0.067413849,10.252631,-0.45177901,0.874668,0.73484999,-0.033241998,-0.67720902,-0.016636999,-0.3157798,-1.485942,0.24516026
2834927634976,0.14762669,0,,-0.0051416876,-0.0016157385,-0.067413849,10.252631,-0.45177901,0.874668,0.73484999,-0.033241998,-0.67720902,-0.016636999,-0.3157798,-1.485942,0.24516026
2834929655840,0.14964755,0,,-0.014129382,-0.0072407777,-0.077504962,9.7453165,-0.64758903,0.79347402,0.73484099,-0.033132002,-0.677221,-0.016786,-0.31176934,-1.4860708,0.24109501
2834931631488,0.1516232,0,,-0.014129382,-0.0072407777,-0.077504962,9.7453165,-0.64758903,0.79347402,0.73484099,-0.033132002,-0.677221,-0.016786,-0.31176934,-1.4860708,0.24109501
2834933832160,0.15382387,0,,-0.014129382,-0.0072407777,-0.077504962,9.7453165,-0.64758903,0.79347402,0.73484099,-0.033132002,-0.677221,-0.016786,-0.31176934,-1.4860708,0.24109501
2834935656928,0.15564864,0,,-0.023936022,-0.0069023232,-0.060290567,9.8938847,-0.190844,0.86658001,0.73483002,-0.033062998,-0.67723298,-0.016936,-0.30839262,-1.4861852,0.23760469
2834937647904,0.15763962,0,,-0.023936022,-0.0069023232,-0.060290567,9.8938847,-0.190844,0.86658001,0.73483002,-0.033062998,-0.67723298,-0.016936,-0.30839262,-1.4861852,0.23760469
2834939762560,0.15975427,0,,0.014774212,-0.014191377,-0.095121539,9.9936142,-0.54054099,0.88671297,0.73480499,-0.032954,-0.67726099,-0.017081,-0.30456799,-1.4863523,0.23372704
2834941681952,0.16167366,0,,0.014774212,-0.014191377,-0.095121539,9.9936142,-0.54054099,0.88671297,0.73480499,-0.032954,-0.67726099,-0.017081,-0.30456799,-1.4863523,0.23372704
2834943700160,0.16369187,0,,0.032198812,-0.017168141,-0.14240275,10.076511,-0.59646302,0.980506,0.73478502,-0.032708999,-0.67729002,-0.017251,-0.29801122,-1.4865737,0.22727851
2834945640736,0.16563245,0,,0.032198812,-0.017168141,-0.14240275,10.076511,-0.59646302,0.980506,0.73478502,-0.032708999,-0.67729002,-0.017251,-0.29801122,-1.4865737,0.22727851
2834947642784,0.1676345,0,,0.032198812,-0.017168141,-0.14240275,10.076511,-0.59646302,0.980506,0.73478502,-0.032708999,-0.67729002,-0.017251,-0.29801122,-1.4865737,0.22727851
2834949630816,0.16962253,0,,0.0070487039,-0.02531066,-0.12292157,9.8951502,-0.54063302,0.85899901,0.73474997,-0.032434002,-0.67733699,-0.017438,-0.29079013,-1.486854,0.22018357
2834951618880,0.17161059,0,,0.0070487039,-0.02531066,-0.12292157,9.8951502,-0.54063302,0.85899901,0.73474997,-0.032434002,-0.67733699,-0.017438,-0.29079013,-1.486854,0.22018357
2834953852576,0.17384429,0,,-0.010067967,-0.018968535,-0.12061133,9.8044729,-0.42543799,0.90196002,0.734712,-0.032256998,-0.67738098,-0.017654,-0.28474495,-1.4871076,0.21408212
2834955620416,0.17561213,0,,-0.010067967,-0.018968535,-0.12061133,9.8044729,-0.42543799,0.90196002,0.734712,-0.032256998,-0.67738098,-0.017654,-0.28474495,-1.4871076,0.21408212
2834957613024,0.17760474,0,,-0.010067967,-0.018968535,-0.12061133,9.8044729,-0.42543799,0.90196002,0.734712,-0.032256998,-0.67738098,-0.017654,-0.28474495,-1.4871076,0.21408212
2834959638112,0.17962982,0,,-0.0089403264,-0.022688304,-0.13291596,9.8117638,-0.33730701,0.92215598,0.73467302,-0.032074001,-0.67742503,-0.017905001,-0.27800407,-1.4873691,0.20724537
2834961660416,0.18165213,0,,-0.0089403264,-0.022688304,-0.13291596,9.8117638,-0.33730701,0.92215598,0.73467302,-0.032074001,-0.67742503,-0.017905001,-0.27800407,-1.4873691,0.20724537
2834963650944,0.18364266,0,,-0.0092136458,-0.024508139,-0.13328366,9.6629257,-0.34488299,0.84317797,0.73463297,-0.031865999,-0.67747098,-0.018154999,-0.27081207,-1.4876411,0.19999393
2834965680704,0.18567242,0,,-0.0092136458,-0.024508139,-0.13328366,9.6629257,-0.34488299,0.84317797,0.73463297,-0.031865999,-0.67747098,-0.018154999,-0.27081207,-1.4876411,0.19999393
2834967642784,0.1876345,0,,-0.0092136458,-0.024508139,-0.13328366,9.6629257,-0.34488299,0.84317797,0.73463297,-0.031865999,-0.67747098,-0.018154999,-0.27081207,-1.4876411,0.19999393
2834969660512,0.18965222,0,,-0.010152685,-0.015365634,-0.13072884,9.7694569,-0.215689,0.86002898,0.73459399,-0.031658001,-0.677517,-0.018402999,-0.26362956,-1.4879056,0.19275569
2834971804352,0.19179606,0,,-0.010152685,-0.015365634,-0.13072884,9.7694569,-0.215689,0.86002898,0.73459399,-0.031658001,-0.677517,-0.018402999,-0.26362956,-1.4879056,0.19275569
2834973858592,0.1938503,0,,-0.030957044,-0.017229193,-0.12129896,9.7355757,-0.217066,0.92160302,0.73456299,-0.031479999,-0.67755198,-0.01867,-0.25652218,-1.4881386,0.18552224
2834975663232,0.19565494,0,,-0.030957044,-0.017229193,-0.12129896,9.7355757,-0.217066,0.92160302,0.73456299,-0.031479999,-0.67755198,-0.01867,-0.25652218,-1.4881386,0.18552224
2834977675680,0.19766739,0,,-0.030957044,-0.017229193,-0.12129896,9.7355757,-0.217066,0.92160302,0.73456299,-0.031479999,-0.67755198,-0.01867,-0.25652218,-1.4881386,0.18552224
2834979653472,0.19964518,0,,-0.020756973,-0.017335308,-0.11413277,10.002458,-0.168239,0.89645797,0.73453099,-0.031326,-0.67758697,-0.018926,-0.24997241,-1.4883563,0.17882829
2834981708256,0.20169997,0,,-0.020756973,-0.017335308,-0.11413277,10.002458,-0.168239,0.89645797,0.73453099,-0.031326,-0.67758697,-0.018926,-0.24997241,-1.4883563,0.17882829
2834983670720,0.20366243,0,,-0.0026957484,-0.005504018,-0.12624267,9.7974701,-0.114885,0.89521897,0.73451197,-0.031136001,-0.67760998,-0.019165,-0.2429741,-1.4885409,0.17176092
2834985645472,0.20563718,0,,-0.0026957484,-0.005504018,-0.12624267,9.7974701,-0.114885,0.89521897,0.73451197,-0.031136001,-0.67760998,-0.019165,-0.2429741,-1.4885409,0.17176092
2834987653088,0.2076448,0,,-0.0026957484,-0.005504018,-0.12624267,9.7974701,-0.114885,0.89521897,0.73451197,-0.031136001,-0.67760998,-0.019165,-0.2429741,-1.4885409,0.17176092
2834989677888,0.2096696,0,,0.0070572739,-0.017895384,-0.10854304,9.8992996,-0.130991,0.70706201,0.734492,-0.030928999,-0.677634,-0.019379999,-0.23600048,-1.4887218,0.16477582
2834991637344,0.21162906,0,,0.0070572739,-0.017895384,-0.10854304,9.8992996,-0.130991,0.70706201,0.734492,-0.030928999,-0.677634,-0.019379999,-0.23600048,-1.4887218,0.16477582
2834993832832,0.21382454,0,,0.00020120156,-0.032492534,-0.10473972,9.5927401,-0.15334,0.77132499,0.73443902,-0.030732,-0.67769498,-0.019569,-0.22984841,-1.4889883,0.15863737
2834995656160,0.21564787,0,,0.00020120156,-0.032492534,-0.10473972,9.5927401,-0.15334,0.77132499,0.73443902,-0.030732,-0.67769498,-0.019569,-0.22984841,-1.4889883,0.15863737
2834997647392,0.2176391,0,,0.00020120156,-0.032492534,-0.10473972,9.5927401,-0.15334,0.77132499,0.73443902,-0.030732,-0.67769498,-0.019569,-0.22984841,-1.4889883,0.15863737
2834999649440,0.21964115,0,,-0.026288394,-0.023332293,-0.094699661,9.5386848,0.039783999,0.65715301,0.73438698,-0.030594001,-0.677751,-0.019780001,-0.22432585,-1.4892322,0.15301192
2835001654688,0.2216464,0,,-0.026288394,-0.023332293,-0.094699661,9.5386848,0.039783999,0.65715301,0.73438698,-0.030594001,-0.677751,-0.019780001,-0.22432585,-1.4892322,0.15301192
2835003635616,0.22362733,0,,-0.026288394,-0.023332293,-0.094699661,9.5386848,0.039783999,0.65715301,0.73438698,-0.030594001,-0.677751,-0.019780001,-0.22432585,-1.4892322,0.15301192
2835005637728,0.22562944,0,,-0.012502142,-0.014252306,-0.10094007,9.5396385,0.250449,0.76223999,0.73434401,-0.030464999,-0.67779702,-0.020006999,-0.21862038,-1.4894491,0.14716651
2835007624704,0.22761642,0,,-0.012502142,-0.014252306,-0.10094007,9.5396385,0.250449,0.76223999,0.73434401,-0.030464999,-0.67779702,-0.020006999,-0.21862038,-1.4894491,0.14716651
2835009624736,0.22961645,0,,0.0096665757,-0.017620845,-0.088876194,9.7038755,0.38814399,0.74212998,0.73431301,-0.030283,-0.67783302,-0.020199001,-0.21241401,-1.4896378,0.14094654
2835011625984,0.2316177,0,,0.0096665757,-0.017620845,-0.088876194,9.7038755,0.38814399,0.74212998,0.73431301,-0.030283,-0.67783302,-0.020199001,-0.21241401,-1.4896378,0.14094654
2835013825536,0.23381725,0,,0.016156688,-0.021518845,-0.082769374,9.6013222,0.37045899,0.683797,0.73427498,-0.030083001,-0.67787898,-0.020354001,-0.20653761,-1.4898412,0.13513386
2835015631456,0.23562317,0,,0.016156688,-0.021518845,-0.082769374,9.6013222,0.37045899,0.683797,0.73427498,-0.030083001,-0.67787898,-0.020354001,-0.20653761,-1.4898412,0.13513386
2835017626016,0.23761773,0,,0.016156688,-0.021518845,-0.082769374,9.6013222,0.37045899,0.683797,0.73427498,-0.030083001,-0.67787898,-0.020354001,-0.20653761,-1.4898412,0.13513386
2835019654784,0.2396465,0,,0.018138509,-0.022625262,-0.065428779,9.6868,0.62410998,0.82160699,0.73423201,-0.029905999,-0.67792898,-0.020482,-0.20151507,-1.4900417,0.13018142
2835021652832,0.24164454,0,,0.018138509,-0.022625262,-0.065428779,9.6868,0.62410998,0.82160699,0.73423201,-0.029905999,-0.67792898,-0.020482,-0.20151507,-1.4900417,0.13018142
2835023658912,0.24365062,0,,0.0081554523,-0.013200431,-0.06045337,9.3980455,0.42591599,0.62956202,0.7342,-0.029735001,-0.67796701,-0.020605,-0.19658921,-1.4902104,0.12532447
2835025653952,0.24564566,0,,0.0081554523,-0.013200431,-0.06045337,9.3980455,0.42591599,0.62956202,0.7342,-0.029735001,-0.67796701,-0.020605,-0.19658921,-1.4902104,0.12532447
2835027653216,0.24764493,0,,0.0081554523,-0.013200431,-0.06045337,9.3980455,0.42591599,0.62956202,0.7342,-0.029735001,-0.67796701,-0.020605,-0.19658921,-1.4902104,0.12532447
2835029654464,0.24964618,0,,-0.0046519833,-0.017419311,-0.053346441,9.9316368,0.24108,0.751194,0.73416799,-0.029618001,-0.67800403,-0.020733001,-0.19253581,-1.4903601,0.12125362
2835031651168,0.25164288,0,,-0.0046519833,-0.017419311,-0.053346441,9.9316368,0.24108,0.751194,0.73416799,-0.029618001,-0.67800403,-0.020733001,-0.19253581,-1.4903601,0.12125362
2835033980608,0.25397232,0,,0.01518138,-0.017424791,-0.064009776,9.6274853,-0.098528996,0.73594803,0.73413301,-0.029493,-0.67804402,-0.020854,-0.1884658,-1.4905183,0.11719008
2835035647616,0.25563933,0,,0.01518138,-0.017424791,-0.064009776,9.6274853,-0.098528996,0.73594803,0.73413301,-0.029493,-0.67804402,-0.020854,-0.1884658,-1.4905183,0.11719008
2835037645472,0.25763718,0,,0.01518138,-0.017424791,-0.064009776,9.6274853,-0.098528996,0.73594803,0.73413301,-0.029493,-0.67804402,-0.020854,-0.1884658,-1.4905183,0.11719008
2835039636864,0.25962858,0,,0.019931258,-0.0067050662,-0.05419872,9.7448997,-0.003792,0.73742497,0.73411101,-0.029362001,-0.67807102,-0.020936999,-0.18483245,-1.4906329,0.11362451
2835041638016,0.26162973,0,,0.019931258,-0.0067050662,-0.05419872,9.7448997,-0.003792,0.73742497,0.73411101,-0.029362001,-0.67807102,-0.020936999,-0.18483245,-1.4906329,0.11362451
2835043663456,0.26365517,0,,0.032969129,-0.0051115809,-0.056850383,9.7190275,0.23989201,0.78173697,0.734101,-0.029207001,-0.67808598,-0.021004001,-0.18096258,-1.4907148,0.10987973
2835045642848,0.26563456,0,,0.032969129,-0.0051115809,-0.056850383,9.7190275,0.23989201,0.78173697,0.734101,-0.029207001,-0.67808598,-0.021004001,-0.18096258,-1.4907148,0.10987973
2835047642624,0.26763434,0,,0.032969129,-0.0051115809,-0.056850383,9.7190275,0.23989201,0.78173697,0.734101,-0.029207001,-0.67808598,-0.021004001,-0.18096258,-1.4907148,0.10987973
2835049627200,0.26961891,0,,0.037529237,-0.0013383883,-0.041416141,9.6996765,0.27729499,0.783167,0.734097,-0.029053999,-0.67809498,-0.021055,-0.17734071,-1.4907735,0.10640255
2835051633728,0.27162544,0,,0.037529237,-0.0013383883,-0.041416141,9.6996765,0.27729499,0.783167,0.734097,-0.029053999,-0.67809498,-0.021055,-0.17734071,-1.4907735,0.10640255
2835053820640,0.27381235,0,,0.049770715,-0.0055720857,-0.030894458,9.7719507,-0.0072610001,0.868873,0.734092,-0.028886,-0.67810798,-0.021062,-0.17421097,-1.4908348,0.10350139
2835055626560,0.27561827,0,,0.049770715,-0.0055720857,-0.030894458,9.7719507,-0.0072610001,0.868873,0.734092,-0.028886,-0.67810798,-0.021062,-0.17421097,-1.4908348,0.10350139
2835057620032,0.27761174,0,,0.049770715,-0.0055720857,-0.030894458,9.7719507,-0.0072610001,0.868873,0.734092,-0.028886,-0.67810798,-0.021062,-0.17421097,-1.4908348,0.10350139
2835059628736,0.27962045,0,,0.043411523,0.0041635876,-0.038196808,9.6444349,-0.52868402,0.63070297,0.73409599,-0.028737999,-0.67810899,-0.021051001,-0.17168497,-1.4908557,0.10120012
2835061632768,0.28162448,0,,0.043411523,0.0041635876,-0.038196808,9.6444349,-0.52868402,0.63070297,0.73409599,-0.028737999,-0.67810899,-0.021051001,-0.17168497,-1.4908557,0.10120012
2835063625536,0.28361725,0,,0.043712102,0.012521951,-0.0093584552,8.694212,-0.045882002,0.86574602,0.734106,-0.028620999,-0.678105,-0.021024,-0.1699697,-1.4908513,0.099688578
2835065618144,0.28560986,0,,0.043712102,0.012521951,-0.0093584552,8.694212,-0.045882002,0.86574602,0.734106,-0.028620999,-0.678105,-0.021024,-0.1699697,-1.4908513,0.099688578
2835067616480,0.28760819,0,,0.043712102,0.012521951,-0.0093584552,8.694212,-0.045882002,0.86574602,0.734106,-0.028620999,-0.678105,-0.021024,-0.1699697,-1.4908513,0.099688578
2835069631776,0.28962349,0,,0.034850594,0.0098090121,0.0869212,9.4349718,0.60446101,0.764844,0.73413998,-0.028612999,-0.67807198,-0.020880001,-0.17209736,-1.4907319,0.10203097
2835071665088,0.2916568,0,,0.034850594,0.0098090121,0.0869212,9.4349718,0.60446101,0.764844,0.73413998,-0.028612999,-0.67807198,-0.020880001,-0.17209736,-1.4907319,0.10203097
2835073822272,0.29381398,0,,0.035286423,-0.00060236549,0.094285964,9.0609455,0.188328,0.93667197,0.73415399,-0.028679,-0.67806101,-0.020685,-0.17650287,-1.4906469,0.10661975
2835075639392,0.2956311,0,,0.035286423,-0.00060236549,0.094285964,9.0609455,0.188328,0.93667197,0.73415399,-0.028679,-0.67806101,-0.020685,-0.17650287,-1.4906469,0.10661975
2835077645216,0.29763693,0,,0.035286423,-0.00060236549,0.094285964,9.0609455,0.188328,0.93667197,0.73415399,-0.028679,-0.67806101,-0.020685,-0.17650287,-1.4906469,0.10661975
2835079655776,0.29964749,0,,0.024480162,-0.0013478131,0.10121568,9.3092499,-0.39666301,0.75272298,0.73416603,-0.028772,-0.67804998,-0.020468,-0.18175913,-1.4905494,0.1120513
2835081646496,0.30163821,0,,0.024480162,-0.0013478131,0.10121568,9.3092499,-0.39666301,0.75272298,0.73416603,-0.028772,-0.67804998,-0.020468,-0.18175913,-1.4905494,0.1120513
2835083668288,0.30366,0,,0.024480162,-0.0013478131,0.10121568,9.3092499,-0.39666301,0.75272298,0.73416603,-0.028772,-0.67804998,-0.020468,-0.18175913,-1.4905494,0.1120513
2835085660224,0.30565194,0,,0.036515501,0.012760922,0.1109781,9.3536539,-0.38503399,0.696446,0.73418599,-0.028895,-0.67803103,-0.020207999,-0.18823429,-1.4904143,0.11872091
2835087645024,0.30763674,0,,0.036515501,0.012760922,0.1109781,9.3536539,-0.38503399,0.696446,0.73418599,-0.028895,-0.67803103,-0.020207999,-0.18823429,-1.4904143,0.11872091
2835089641952,0.30963366,0,,0.028340813,0.021577836,0.1346206,9.6627178,-0.48931301,0.48575699,0.73422402,-0.029051,-0.67799199,-0.019923,-0.19558568,-1.4902112,0.12625394
2835091643744,0.31163546,0,,0.028340813,0.021577836,0.1346206,9.6627178,-0.48931301,0.48575699,0.73422402,-0.029051,-0.67799199,-0.019923,-0.19558568,-1.4902112,0.12625394
2835093833600,0.31382531,0,,0.044282947,0.025461736,0.13399472,9.8432207,0.15451901,0.63938397,0.734258,-0.029234,-0.67795599,-0.019610001,-0.20387502,-1.4899975,0.13472877
2835095652128,0.31564384,0,,0.044282947,0.025461736,0.13399472,9.8432207,0.15451901,0.63938397,0.734258,-0.029234,-0.67795599,-0.019610001,-0.20387502,-1.4899975,0.13472877
2835097636096,0.31762781,0,,0.044282947,0.025461736,0.13399472,9.8432207,0.15451901,0.63938397,0.734258,-0.029234,-0.67795599,-0.019610001,-0.20387502,-1.4899975,0.13472877
2835099637728,0.31962944,0,,0.041437817,0.027986721,0.1756377,9.4984455,0.46118701,0.70026302,0.73431098,-0.029395999,-0.67790198,-0.019274,-0.21199563,-1.4897261,0.14309481
2835101638048,0.32162976,0,,0.041437817,0.027986721,0.1756377,9.4984455,0.46118701,0.70026302,0.73431098,-0.029395999,-0.67790198,-0.019274,-0.21199563,-1.4897261,0.14309481
2835103635552,0.32362726,0,,0.041437817,0.027986721,0.1756377,9.4984455,0.46118701,0.70026302,0.73431098,-0.029395999,-0.67790198,-0.019274,-0.21199563,-1.4897261,0.14309481
2835105677280,0.32566899,0,,0.019181326,0.02797726,0.25552673,9.3031416,0.423309,0.65821999,0.73436701,-0.029681999,-0.67783999,-0.018862,-0.22348803,-1.4893823,0.15476461
2835107640000,0.32763171,0,,0.019181326,0.02797726,0.25552673,9.3031416,0.423309,0.65821999,0.73436701,-0.029681999,-0.67783999,-0.018862,-0.22348803,-1.4893823,0.15476461
2835109631904,0.32962362,0,,0.032901866,0.028436004,0.3091205,9.4452343,0.470644,0.599195,0.73442799,-0.030092999,-0.67777002,-0.018324999,-0.23905922,-1.4889379,0.17051342
2835111635136,0.33162685,0,,0.032901866,0.028436004,0.3091205,9.4452343,0.470644,0.599195,0.73442799,-0.030092999,-0.67777002,-0.018324999,-0.23905922,-1.4889379,0.17051342
2835113821216,0.33381293,0,,0.035329162,0.0394472,0.33265003,9.1304922,0.195499,0.61515701,0.73449397,-0.030551,-0.67769498,-0.017713999,-0.256432,-1.4884212,0.18810265
2835115630528,0.33562224,0,,0.035329162,0.0394472,0.33265003,9.1304922,0.195499,0.61515701,0.73449397,-0.030551,-0.67769498,-0.017713999,-0.256432,-1.4884212,0.18810265
2835117634816,0.33762653,0,,0.035329162,0.0394472,0.33265003,9.1304922,0.195499,0.61515701,0.73449397,-0.030551,-0.67769498,-0.017713999,-0.256432,-1.4884212,0.18810265
2835119621408,0.33961312,0,,0.031521152,0.045600533,0.34353736,9.1936903,-0.18890899,0.72809798,0.73457903,-0.031051001,-0.67759597,-0.017055999,-0.27487747,-1.4877943,0.20677067
2835121621312,0.34161302,0,,0.031521152,0.045600533,0.34353736,9.1936903,-0.18890899,0.72809798,0.73457903,-0.031051001,-0.67759597,-0.017055999,-0.27487747,-1.4877943,0.20677067
2835123645568,0.34363728,0,,0.036398842,0.052977881,0.34277919,9.727129,-0.208075,0.61333901,0.73468101,-0.031562999,-0.67747897,-0.016378,-0.29341427,-1.4870763,0.22554067
2835125619776,0.34561149,0,,0.036398842,0.052977881,0.34277919,9.727129,-0.208075,0.61333901,0.73468101,-0.031562999,-0.67747897,-0.016378,-0.29341427,-1.4870763,0.22554067
2835127625664,0.34761738,0,,0.036398842,0.052977881,0.34277919,9.727129,-0.208075,0.61333901,0.73468101,-0.031562999,-0.67747897,-0.016378,-0.29341427,-1.4870763,0.22554067
2835129623232,0.34961494,0,,0.035049459,0.053956888,0.35055965,10.378592,0.246637,0.77166402,0.73478198,-0.032085001,-0.67736101,-0.015689,-0.31196076,-1.4863213,0.24432364
2835131621088,0.3516128,0,,0.035049459,0.053956888,0.35055965,10.378592,0.246637,0.77166402,0.73478198,-0.032085001,-0.67736101,-0.015689,-0.31196076,-1.4863213,0.24432364
2835133820768,0.35381248,0,,0.041297597,0.04109067,0.37296582,10.386451,-0.036502,1.032073,0.73487997,-0.032598,-0.67724597,-0.014991,-0.33016483,-1.4855461,0.26278865
2835135651392,0.3556431,0,,0.041297597,0.04109067,0.37296582,10.386451,-0.036502,1.032073,0.73487997,-0.032598,-0.67724597,-0.014991,-0.33016483,-1.4855461,0.26278865
2835137645952,0.35763766,0,,0.041297597,0.04109067,0.37296582,10.386451,-0.036502,1.032073,0.73487997,-0.032598,-0.67724597,-0.014991,-0.33016483,-1.4855461,0.26278865
2835139669856,0.35966157,0,,0.040307018,0.034026922,0.3810366,10.12816,-0.54097998,0.87943697,0.73496699,-0.033146001,-0.67714202,-0.014237,-0.34957961,-1.4847327,0.28249375
2835141681408,0.36167312,0,,0.040307018,0.034026922,0.3810366,10.12816,-0.54097998,0.87943697,0.73496699,-0.033146001,-0.67714202,-0.014237,-0.34957961,-1.4847327,0.28249375
2835143696800,0.36368851,0,,0.033716254,0.043139406,0.37740208,10.050285,-0.62268102,0.71441901,0.73505002,-0.033730999,-0.67703801,-0.013475,-0.36935072,-1.4838707,0.30251386
2835145660864,0.36565258,0,,0.033716254,0.043139406,0.37740208,10.050285,-0.62268102,0.71441901,0.73505002,-0.033730999,-0.67703801,-0.013475,-0.36935072,-1.4838707,0.30251386
2835147673248,0.36766496,0,,0.033716254,0.043139406,0.37740208,10.050285,-0.62268102,0.71441901,0.73505002,-0.033730999,-0.67703801,-0.013475,-0.36935072,-1.4838707,0.30251386
2835149655040,0.36964675,0,,0.048895434,0.051665375,0.36287294,10.023615,-1.019394,0.733639,0.73514098,-0.034311,-0.676925,-0.012721,-0.38843,-1.4829602,0.32184012
2835151634720,0.37162643,0,,0.048895434,0.051665375,0.36287294,10.023615,-1.019394,0.733639,0.73514098,-0.034311,-0.676925,-0.012721,-0.38843,-1.4829602,0.32184012
2835153833760,0.37382547,0,,0.086772513,0.065231068,0.32758583,10.073911,-1.463784,0.82625097,0.73525399,-0.034789998,-0.67679298,-0.011938,-0.40570982,-1.4820001,0.33954858
2835155690368,0.37568208,0,,0.086772513,0.065231068,0.32758583,10.073911,-1.463784,0.82625097,0.73525399,-0.034789998,-0.67679298,-0.011938,-0.40570982,-1.4820001,0.33954858
2835157678720,0.37767043,0,,0.086772513,0.065231068,0.32758583,10.073911,-1.463784,0.82625097,0.73525399,-0.034789998,-0.67679298,-0.011938,-0.40570982,-1.4820001,0.33954858
2835159692192,0.3796839,0,,0.032957278,0.059584355,0.32860412,10.111682,-1.502447,1.016637,0.73538297,-0.035255,-0.67663997,-0.011192,-0.42166658,-1.4809901,0.35589995
2835161634656,0.38162637,0,,0.032957278,0.059584355,0.32860412,10.111682,-1.502447,1.016637,0.73538297,-0.035255,-0.67663997,-0.011192,-0.42166658,-1.4809901,0.35589995
2835163699776,0.38369149,0,,-0.0023461066,0.047967493,0.31769075,9.9055185,-1.300431,0.879897,0.735488,-0.035827,-0.676507,-0.010527,-0.43802695,-1.4800041,0.37239088
2835165647872,0.38563958,0,,-0.0023461066,0.047967493,0.31769075,9.9055185,-1.300431,0.879897,0.735488,-0.035827,-0.676507,-0.010527,-0.43802695,-1.4800041,0.37239088
2835167688064,0.38767978,0,,-0.0023461066,0.047967493,0.31769075,9.9055185,-1.300431,0.879897,0.735488,-0.035827,-0.676507,-0.010527,-0.43802695,-1.4800041,0.37239088
2835169655424,0.38964714,0,,-0.014135264,0.035532599,0.28367932,9.9350424,-1.371446,0.72286302,0.735569,-0.036387,-0.67639703,-0.0099529997,-0.45295047,-1.479113,0.38733391
2835171678816,0.39167053,0,,-0.014135264,0.035532599,0.28367932,9.9350424,-1.371446,0.72286302,0.735569,-0.036387,-0.67639703,-0.0099529997,-0.45295047,-1.479113,0.38733391
2835173819136,0.39381085,0,,-0.014135264,0.035532599,0.28367932,9.9350424,-1.371446,0.72286302,0.735569,-0.036387,-0.67639703,-0.0099529997,-0.45295047,-1.479113,0.38733391
2835175662336,0.39565405,0,,-0.013656713,0.03181695,0.23132051,9.8843145,-1.3898129,0.78802699,0.735627,-0.036890998,-0.676314,-0.0094659999,-0.46592359,-1.4783504,0.40028093
2835177623872,0.39761558,0,,-0.013656713,0.03181695,0.23132051,9.8843145,-1.3898129,0.78802699,0.735627,-0.036890998,-0.676314,-0.0094659999,-0.46592359,-1.4783504,0.40028093
2835179637568,0.39962928,0,,-0.012472524,0.0357027,0.15769742,9.885375,-1.444652,0.795605,0.73568302,-0.037289001,-0.67623699,-0.0090929996,-0.4757225,-1.4777174,0.41004348
2835181618784,0.4016105,0,,-0.012472524,0.0357027,0.15769742,9.885375,-1.444652,0.795605,0.73568302,-0.037289001,-0.67623699,-0.0090929996,-0.4757225,-1.4777174,0.41004348
2835183623104,0.40361482,0,,-0.032344006,0.027577651,0.096240267,9.985014,-1.35928,0.82868302,0.73574001,-0.037583999,-0.67616099,-0.0088600004,-0.48212347,-1.4772262,0.41635757
2835185632320,0.40562403,0,,-0.032344006,0.027577651,0.096240267,9.985014,-1.35928,0.82868302,0.73574001,-0.037583999,-0.67616099,-0.0088600004,-0.48212347,-1.4772262,0.41635757
2835187628000,0.40761971,0,,-0.032344006,0.027577651,0.096240267,9.985014,-1.35928,0.82868302,0.73574001,-0.037583999,-0.67616099,-0.0088600004,-0.48212347,-1.4772262,0.41635757
2835189614400,0.40960611,0,,-0.038592983,0.017508636,0.041897762,10.483466,-0.96996301,1.030998,0.73577702,-0.037804998,-0.67610997,-0.0087599996,-0.48599704,-1.4769147,0.42005804
2835191630080,0.41162179,0,,-0.038592983,0.017508636,0.041897762,10.483466,-0.96996301,1.030998,0.73577702,-0.037804998,-0.67610997,-0.0087599996,-0.48599704,-1.4769147,0.42005804
2835193802144,0.41379386,0,,-0.024188186,0.019441991,-0.0030390546,10.554835,-0.73097098,0.899912,0.73580998,-0.037916999,-0.67606801,-0.0087620001,-0.48706943,-1.4767503,0.42096967
2835195660000,0.41565171,0,,-0.024188186,0.019441991,-0.0030390546,10.554835,-0.73097098,0.899912,0.73580998,-0.037916999,-0.67606801,-0.0087620001,-0.48706943,-1.4767503,0.42096967
2835197720864,0.41771258,0,,-0.024188186,0.019441991,-0.0030390546,10.554835,-0.73097098,0.899912,0.73580998,-0.037916999,-0.67606801,-0.0087620001,-0.48706943,-1.4767503,0.42096967
2835199687488,0.4196792,0,,-0.023210541,0.013416485,-0.039995545,10.814706,-0.64160502,1.14642,0.73583698,-0.037930999,-0.676036,-0.0088330004,-0.48596338,-1.4767122,0.41974208
2835201658912,0.42165062,0,,-0.023210541,0.013416485,-0.039995545,10.814706,-0.64160502,1.14642,0.73583698,-0.037930999,-0.676036,-0.0088330004,-0.48596338,-1.4767122,0.41974208
2835203686784,0.4236785,0,,-0.023210541,0.013416485,-0.039995545,10.814706,-0.64160502,1.14642,0.73583698,-0.037930999,-0.676036,-0.0088330004,-0.48596338,-1.4767122,0.41974208
2835205685632,0.42567734,0,,-0.03364506,-0.010613574,-0.065811654,11.011108,-0.733509,1.098318,0.73584598,-0.037896,-0.676027,-0.0089659998,-0.48362899,-1.4767901,0.41726924
2835207639200,0.42763091,0,,-0.03364506,-0.010613574,-0.065811654,11.011108,-0.733509,1.098318,0.73584598,-0.037896,-0.676027,-0.0089659998,-0.48362899,-1.4767901,0.41726924
2835209690496,0.42968221,0,,-0.021549894,-0.012720081,-0.097142022,10.767651,-0.81270498,1.021749,0.73582798,-0.037813,-0.67604899,-0.0091530001,-0.48031768,-1.4770082,0.41381109
2835211644608,0.43163632,0,,-0.021549894,-0.012720081,-0.097142022,10.767651,-0.81270498,1.021749,0.73582798,-0.037813,-0.67604899,-0.0091530001,-0.48031768,-1.4770082,0.41381109
2835213837376,0.43382909,0,,-0.03203503,-0.020272646,-0.11523662,10.459244,-0.815238,0.90237898,0.73580098,-0.037687998,-0.67608297,-0.0093729999,-0.4760725,-1.4772975,0.40943112
2835215665504,0.43565722,0,,-0.03203503,-0.020272646,-0.11523662,10.459244,-0.815238,0.90237898,0.73580098,-0.037687998,-0.67608297,-0.0093729999,-0.4760725,-1.4772975,0.40943112
2835217631808,0.43762352,0,,-0.03203503,-0.020272646,-0.11523662,10.459244,-0.815238,0.90237898,0.73580098,-0.037687998,-0.67608297,-0.0093729999,-0.4760725,-1.4772975,0.40943112
2835219631776,0.43962349,0,,-0.050946388,-0.023268661,-0.1305822,10.034657,-0.61297899,0.938281,0.73575801,-0.037576001,-0.67613101,-0.0096570002,-0.47134885,-1.4776519,0.4044636
2835221697120,0.44168883,0,,-0.050946388,-0.023268661,-0.1305822,10.034657,-0.61297899,0.938281,0.73575801,-0.037576001,-0.67613101,-0.0096570002,-0.47134885,-1.4776519,0.4044636
2835223627424,0.44361914,0,,-0.050946388,-0.023268661,-0.1305822,10.034657,-0.61297899,0.938281,0.73575801,-0.037576001,-0.67613101,-0.0096570002,-0.47134885,-1.4776519,0.4044636
2835225623200,0.44561491,0,,-0.050946388,-0.023268661,-0.1305822,10.034657,-0.61297899,0.938281,0.73575801,-0.037576001,-0.67613101,-0.0096570002,-0.47134885,-1.4776519,0.4044636
2835227656736,0.44764845,0,,-0.050946388,-0.023268661,-0.1305822,10.034657,-0.61297899,0.938281,0.73575801,-0.037576001,-0.67613101,-0.0096570002,-0.47134885,-1.4776519,0.4044636
2835229618720,0.44961043,0,,0.0040378193,-0.019812629,-0.1502957,9.2638426,-0.309028,0.73331898,0.73567802,-0.037218001,-0.676229,-0.010265,-0.45927198,-1.4784545,0.39203456
2835231640448,0.45163216,0,,0.0040378193,-0.019812629,-0.1502957,9.2638426,-0.309028,0.73331898,0.73567802,-0.037218001,-0.676229,-0.010265,-0.45927198,-1.4784545,0.39203456
2835233859136,0.45385085,0,,-0.020089456,-0.022630671,-0.17050278,9.2778778,-0.834014,0.80998498,0.73563898,-0.036959,-0.67628199,-0.010573,-0.45194706,-1.4789022,0.38464222
2835235640704,0.45563242,0,,-0.020089456,-0.022630671,-0.17050278,9.2778778,-0.834014,0.80998498,0.73563898,-0.036959,-0.67628199,-0.010573,-0.45194706,-1.4789022,0.38464222
2835237668576,0.45766029,0,,-0.020089456,-0.022630671,-0.17050278,9.2778778,-0.834014,0.80998498,0.73563898,-0.036959,-0.67628199,-0.010573,-0.45194706,-1.4789022,0.38464222
2835239645824,0.45963754,0,,-0.047330136,-0.028598755,-0.17410371,8.6984797,-0.67424899,0.80476397,0.73558801,-0.036743,-0.67634201,-0.010934,-0.44458066,-1.4793749,0.37707039
2835241627040,0.46161875,0,,-0.047330136,-0.028598755,-0.17410371,8.6984797,-0.67424899,0.80476397,0.73558801,-0.036743,-0.67634201,-0.010934,-0.44458066,-1.4793749,0.37707039
2835243660864,0.46365258,0,,-0.055638687,-0.014536149,-0.15452614,8.9539299,-0.36815199,0.57633799,0.73554701,-0.036570001,-0.67638999,-0.011307,-0.43749924,-1.4797973,0.36970748
2835245618912,0.46561062,0,,-0.055638687,-0.014536149,-0.15452614,8.9539299,-0.36815199,0.57633799,0.73554701,-0.036570001,-0.67638999,-0.011307,-0.43749924,-1.4797973,0.36970748
2835247638400,0.46763011,0,,-0.055638687,-0.014536149,-0.15452614,8.9539299,-0.36815199,0.57633799,0.73554701,-0.036570001,-0.67638999,-0.011307,-0.43749924,-1.4797973,0.36970748
2835249642592,0.4696343,0,,-0.053519264,-0.014821947,-0.16326735,9.4835587,-0.17603201,0.73629701,0.73550701,-0.036415,-0.67643601,-0.011691,-0.43044796,-1.480206,0.36233106
2835251671488,0.4716632,0,,-0.053519264,-0.014821947,-0.16326735,9.4835587,-0.17603201,0.73629701,0.73550701,-0.036415,-0.67643601,-0.011691,-0.43044796,-1.480206,0.36233106
2835253802848,0.47379456,0,,-0.041457033,-0.0043113473,-0.17419773,9.6329746,-0.44349501,0.823412,0.73548198,-0.036203001,-0.67646801,-0.012094,-0.42202671,-1.4806134,0.35364003
2835255634496,0.47562621,0,,-0.041457033,-0.0043113473,-0.17419773,9.6329746,-0.44349501,0.823412,0.73548198,-0.036203001,-0.67646801,-0.012094,-0.42202671,-1.4806134,0.35364003
2835257671552,0.47766326,0,,-0.041457033,-0.0043113473,-0.17419773,9.6329746,-0.44349501,0.823412,0.73548198,-0.036203001,-0.67646801,-0.012094,-0.42202671,-1.4806134,0.35364003
2835259627008,0.47961872,0,,-0.046395058,-0.018640082,-0.17242888,10.400679,-0.26495099,0.93869603,0.73545498,-0.035992999,-0.67650098,-0.012483,-0.41376532,-1.4810094,0.34512567
2835261631360,0.48162307,0,,-0.046395058,-0.018640082,-0.17242888,10.400679,-0.26495099,0.93869603,0.73545498,-0.035992999,-0.67650098,-0.012483,-0.41376532,-1.4810094,0.34512567
2835263643520,0.48363523,0,,-0.046395058,-0.018640082,-0.17242888,10.400679,-0.26495099,0.93869603,0.73545498,-0.035992999,-0.67650098,-0.012483,-0.41376532,-1.4810094,0.34512567
2835265665888,0.4856576,0,,-0.032522867,-0.021693657,-0.16947034,10.196607,-0.134074,1.117499,0.73541301,-0.035769999,-0.67655098,-0.01287,-0.40546528,-1.4814453,0.33659457
2835267620512,0.48761222,0,,-0.032522867,-0.021693657,-0.16947034,10.196607,-0.134074,1.117499,0.73541301,-0.035769999,-0.67655098,-0.01287,-0.40546528,-1.4814453,0.33659457
2835269653952,0.48964566,0,,-0.027881634,-0.030897826,-0.16445774,10.33619,-0.41499099,0.938407,0.73537397,-0.035525002,-0.67659998,-0.013224,-0.3971711,-1.4818657,0.32814629
2835271719904,0.49171162,0,,-0.027881634,-0.030897826,-0.16445774,10.33619,-0.41499099,0.938407,0.73537397,-0.035525002,-0.67659998,-0.013224,-0.3971711,-1.4818657,0.32814629
2835273842592,0.4938343,0,,-0.04388257,-0.030877701,-0.16037027,9.8435488,-0.39456201,0.71524101,0.73531502,-0.035314001,-0.67666799,-0.013576,-0.38957493,-1.4823152,0.32035175
2835275665184,0.4956569,0,,-0.04388257,-0.030877701,-0.16037027,9.8435488,-0.39456201,0.71524101,0.73531502,-0.035314001,-0.67666799,-0.013576,-0.38957493,-1.4823152,0.32035175
2835277656960,0.49764867,0,,-0.04388257,-0.030877701,-0.16037027,9.8435488,-0.39456201,0.71524101,0.73531502,-0.035314001,-0.67666799,-0.013576,-0.38957493,-1.4823152,0.32035175
2835279641120,0.49963283,0,,-0.04388257,-0.030877701,-0.16037027,9.8435488,-0.39456201,0.71524101,0.73531502,-0.035314001,-0.67666799,-0.013576,-0.38957493,-1.4823152,0.32035175
2835281641280,0.50163299,0,,-0.04388257,-0.030877701,-0.16037027,9.8435488,-0.39456201,0.71524101,0.73531502,-0.035314001,-0.67666799,-0.013576,-0.38957493,-1.4823152,0.32035175
2835283629792,0.5036215,0,,-0.04388257,-0.030877701,-0.16037027,9.8435488,-0.39456201,0.71524101,0.73531502,-0.035314001,-0.67666799,-0.013576,-0.38957493,-1.4823152,0.32035175
2835285637792,0.5056295,0,,-0.036517173,-0.021259909,-0.17421265,9.9394646,-0.27839601,0.88415599,0.73520797,-0.034935001,-0.67678797,-0.014338,-0.37385053,-1.483169,0.30408436
2835287636128,0.50762784,0,,-0.036517173,-0.021259909,-0.17421265,9.9394646,-0.27839601,0.88415599,0.73520797,-0.034935001,-0.67678797,-0.014338,-0.37385053,-1.483169,0.30408436
2835289627936,0.50961965,0,,-0.041914918,-0.035919731,-0.18889981,9.8416519,-0.50406599,0.79968899,0.73515397,-0.034697,-0.67685097,-0.014737,-0.36483067,-1.4836191,0.2948381
2835291617152,0.51160886,0,,-0.041914918,-0.035919731,-0.18889981,9.8416519,-0.50406599,0.79968899,0.73515397,-0.034697,-0.67685097,-0.014737,-0.36483067,-1.4836191,0.2948381
2835293806304,0.51379802,0,,-0.046076432,-0.029481387,-0.18610215,9.3437748,-0.77937198,0.60509801,0.73508501,-0.034467999,-0.67692798,-0.015148,-0.35584809,-1.4841058,0.28559869
2835295616736,0.51560845,0,,-0.046076432,-0.029481387,-0.18610215,9.3437748,-0.77937198,0.60509801,0.73508501,-0.034467999,-0.67692798,-0.015148,-0.35584809,-1.4841058,0.28559869
2835297626208,0.51761792,0,,-0.046076432,-0.029481387,-0.18610215,9.3437748,-0.77937198,0.60509801,0.73508501,-0.034467999,-0.67692798,-0.015148,-0.35584809,-1.4841058,0.28559869
2835299627232,0.51961894,0,,-0.05236314,-0.032588422,-0.20505696,9.8782053,-0.49985501,0.851888,0.735017,-0.034260001,-0.67700201,-0.015574,-0.34687683,-1.4845733,0.27631999
2835301607776,0.52159949,0,,-0.05236314,-0.032588422,-0.20505696,9.8782053,-0.49985501,0.851888,0.735017,-0.034260001,-0.67700201,-0.015574,-0.34687683,-1.4845733,0.27631999
2835303607712,0.52359942,0,,-0.0522032,-0.032770041,-0.22958979,9.4714909,-0.28648901,0.83129197,0.73495001,-0.033992,-0.677077,-0.016052,-0.33602412,-1.4850861,0.26516947
2835305674720,0.52566643,0,,-0.0522032,-0.032770041,-0.22958979,9.4714909,-0.28648901,0.83129197,0.73495001,-0.033992,-0.677077,-0.016052,-0.33602412,-1.4850861,0.26516947
2835307652032,0.52764374,0,,-0.0522032,-0.032770041,-0.22958979,9.4714909,-0.28648901,0.83129197,0.73495001,-0.033992,-0.677077,-0.016052,-0.33602412,-1.4850861,0.26516947
2835309636768,0.52962848,0,,-0.047775579,-0.033098022,-0.23248206,9.4797754,-0.13595,0.65519702,0.73488402,-0.033693999,-0.67715198,-0.016562,-0.32404985,-1.4856073,0.25289589
2835311675648,0.53166736,0,,-0.047775579,-0.033098022,-0.23248206,9.4797754,-0.13595,0.65519702,0.73488402,-0.033693999,-0.67715198,-0.016562,-0.32404985,-1.4856073,0.25289589
2835313798496,0.53379021,0,,-0.038289295,-0.030264287,-0.22539504,9.4016914,0.007462,0.68894702,0.73481202,-0.033383999,-0.67723298,-0.017064,-0.31190586,-1.4861376,0.24048175
2835315638656,0.53563037,0,,-0.038289295,-0.030264287,-0.22539504,9.4016914,0.007462,0.68894702,0.73481202,-0.033383999,-0.67723298,-0.017064,-0.31190586,-1.4861376,0.24048175
2835317689344,0.53768106,0,,-0.038289295,-0.030264287,-0.22539504,9.4016914,0.007462,0.68894702,0.73481202,-0.033383999,-0.67723298,-0.017064,-0.31190586,-1.4861376,0.24048175
2835319629632,0.53962134,0,,-0.036291121,-0.02193439,-0.24235683,10.009049,-0.27785301,0.73526299,0.73475099,-0.033048999,-0.67730302,-0.017566999,-0.29907286,-1.4866311,0.22741209
2835321635232,0.54162694,0,,-0.036291121,-0.02193439,-0.24235683,10.009049,-0.27785301,0.73526299,0.73475099,-0.033048999,-0.67730302,-0.017566999,-0.29907286,-1.4866311,0.22741209
2835323638304,0.54363002,0,,-0.039576371,-0.024475607,-0.24849374,10.095257,-0.119153,0.86905599,0.73469597,-0.032701999,-0.67736501,-0.018087,-0.28556241,-1.4871026,0.21365501
2835325635392,0.5456271,0,,-0.039576371,-0.024475607,-0.24849374,10.095257,-0.119153,0.86905599,0.73469597,-0.032701999,-0.67736501,-0.018087,-0.28556241,-1.4871026,0.21365501
2835327623680,0.54761539,0,,-0.039576371,-0.024475607,-0.24849374,10.095257,-0.119153,0.86905599,0.73469597,-0.032701999,-0.67736501,-0.018087,-0.28556241,-1.4871026,0.21365501
2835329633984,0.5496257,0,,-0.043411311,-0.028902339,-0.24111601,10.159875,0.117599,0.89775699,0.73463899,-0.032356001,-0.67742997,-0.018612999,-0.27184139,-1.4875673,0.19968036
2835331632768,0.55162448,0,,-0.043411311,-0.028902339,-0.24111601,10.159875,0.117599,0.89775699,0.73463899,-0.032356001,-0.67742997,-0.018612999,-0.27184139,-1.4875673,0.19968036
2835333835360,0.55382707,0,,-0.03440564,-0.031104648,-0.22324532,10.269286,-0.067948997,0.903813,0.73457801,-0.032019001,-0.67749798,-0.019115999,-0.25851619,-1.4880138,0.18612067
2835335625440,0.55561715,0,,-0.03440564,-0.031104648,-0.22324532,10.269286,-0.067948997,0.903813,0.73457801,-0.032019001,-0.67749798,-0.019115999,-0.25851619,-1.4880138,0.18612067
2835337672480,0.55766419,0,,-0.03440564,-0.031104648,-0.22324532,10.269286,-0.067948997,0.903813,0.73457801,-0.032019001,-0.67749798,-0.019115999,-0.25851619,-1.4880138,0.18612067
2835339674976,0.55966669,0,,-0.02742537,-0.034323278,-0.22490482,10.336085,-0.44895601,0.84832501,0.73451298,-0.031690001,-0.67756999,-0.019578001,-0.24586746,-1.4884431,0.17328477
2835341635904,0.56162762,0,,-0.02742537,-0.034323278,-0.22490482,10.336085,-0.44895601,0.84832501,0.73451298,-0.031690001,-0.67756999,-0.019578001,-0.24586746,-1.4884431,0.17328477
2835343678208,0.56366992,0,,-0.02742537,-0.034323278,-0.22490482,10.336085,-0.44895601,0.84832501,0.73451298,-0.031690001,-0.67756999,-0.019578001,-0.24586746,-1.4884431,0.17328477
2835345628672,0.56562038,0,,-0.032615561,-0.037741383,-0.22605685,9.9258471,-0.51479101,0.79418898,0.73443902,-0.031374,-0.677652,-0.020032,-0.23353429,-1.488879,0.16075631
2835347622112,0.56761382,0,,-0.032615561,-0.037741383,-0.22605685,9.9258471,-0.51479101,0.79418898,0.73443902,-0.031374,-0.677652,-0.020032,-0.23353429,-1.488879,0.16075631
2835349637024,0.56962874,0,,-0.032705393,-0.03562737,-0.21895627,9.4442186,-0.146644,0.73453802,0.73436397,-0.031071,-0.67773402,-0.020482,-0.22135528,-1.4893001,0.14837046
2835351616928,0.57160864,0,,-0.032705393,-0.03562737,-0.21895627,9.4442186,-0.146644,0.73453802,0.73436397,-0.031071,-0.67773402,-0.020482,-0.22135528,-1.4893001,0.14837046
2835353846880,0.57383859,0,,-0.032705393,-0.03562737,-0.21895627,9.4442186,-0.146644,0.73453802,0.73436397,-0.031071,-0.67773402,-0.020482,-0.22135528,-1.4893001,0.14837046
2835355609696,0.57560141,0,,-0.036825626,-0.025196096,-0.19606798,9.0169888,0.16224401,0.70603102,0.73429602,-0.030787,-0.67780697,-0.020923,-0.20947318,-1.4896783,0.1362655
2835357661664,0.57765338,0,,-0.036825626,-0.025196096,-0.19606798,9.0169888,0.16224401,0.70603102,0.73429602,-0.030787,-0.67780697,-0.020923,-0.20947318,-1.4896783,0.1362655
2835359637248,0.57962896,0,,-0.037642771,-0.022014588,-0.19149442,9.2390947,0.0086430004,0.723288,0.73424399,-0.030516,-0.677863,-0.021353999,-0.19779885,-1.4899946,0.12436637
2835361622176,0.58161389,0,,-0.037642771,-0.022014588,-0.19149442,9.2390947,0.0086430004,0.723288,0.73424399,-0.030516,-0.677863,-0.021353999,-0.19779885,-1.4899946,0.12436637
2835363650176,0.58364189,0,,-0.037642771,-0.022014588,-0.19149442,9.2390947,0.0086430004,0.723288,0.73424399,-0.030516,-0.677863,-0.021353999,-0.19779885,-1.4899946,0.12436637
2835365652736,0.58564445,0,,-0.031528011,-0.026525846,-0.20494846,9.4964361,-0.157897,0.77579397,0.73418897,-0.030238001,-0.677921,-0.021783,-0.18596584,-1.4903097,0.11231889
2835367647872,0.58763958,0,,-0.031528011,-0.026525846,-0.20494846,9.4964361,-0.157897,0.77579397,0.73418897,-0.030238001,-0.677921,-0.021783,-0.18596584,-1.4903097,0.11231889
2835369650400,0.58964211,0,,-0.029468541,-0.024588529,-0.21494483,9.5654173,0.039478999,0.63564998,0.73413199,-0.029936001,-0.67798102,-0.022221999,-0.17345268,-1.4906201,0.099612411
2835371694112,0.59168582,0,,-0.029468541,-0.024588529,-0.21494483,9.5654173,0.039478999,0.63564998,0.73413199,-0.029936001,-0.67798102,-0.022221999,-0.17345268,-1.4906201,0.099612411
2835373843328,0.59383504,0,,-0.024723932,-0.016991583,-0.19890536,9.3645363,0.29930401,0.719464,0.73407698,-0.029634999,-0.67804003,-0.022662001,-0.1608161,-1.4909177,0.086779903
2835375637344,0.59562906,0,,-0.024723932,-0.016991583,-0.19890536,9.3645363,0.29930401,0.719464,0.73407698,-0.029634999,-0.67804003,-0.022662001,-0.1608161,-1.4909177,0.086779903
2835377629952,0.59762166,0,,-0.024723932,-0.016991583,-0.19890536,9.3645363,0.29930401,0.719464,0.73407698,-0.029634999,-0.67804003,-0.022662001,-0.1608161,-1.4909177,0.086779903
2835379626016,0.59961773,0,,-0.014243877,-0.012503154,-0.18730916,9.6901712,0.10862,0.757631,0.73404002,-0.029328,-0.67807901,-0.023065999,-0.14851296,-1.4911397,0.074339928
2835381648192,0.6016399,0,,-0.014243877,-0.012503154,-0.18730916,9.6901712,0.10862,0.757631,0.73404002,-0.029328,-0.67807901,-0.023065999,-0.14851296,-1.4911397,0.074339928
2835383625120,0.60361683,0,,-0.014243877,-0.012503154,-0.18730916,9.6901712,0.10862,0.757631,0.73404002,-0.029328,-0.67807901,-0.023065999,-0.14851296,-1.4911397,0.074339928
2835385632096,0.60562381,0,,-0.018049287,-0.014253039,-0.18325065,9.6738224,0.38396201,0.697918,0.73400402,-0.029029001,-0.67811799,-0.023445999,-0.1367098,-1.491349,0.062420934
2835387637728,0.60762944,0,,-0.018049287,-0.014253039,-0.18325065,9.6738224,0.38396201,0.697918,0.73400402,-0.029029001,-0.67811799,-0.023445999,-0.1367098,-1.491349,0.062420934
2835389625760,0.60961747,0,,-0.011779018,-0.012400145,-0.1406579,9.618721,0.72527999,0.63749701,0.73396599,-0.028764,-0.678159,-0.023798,-0.12596193,-1.4915409,0.051551492
2835391625632,0.61161734,0,,-0.011779018,-0.012400145,-0.1406579,9.618721,0.72527999,0.63749701,0.73396599,-0.028764,-0.678159,-0.023798,-0.12596193,-1.4915409,0.051551492
2835393813216,0.61380493,0,,-0.002756154,-0.0054759357,-0.11359018,9.7556763,0.26176199,0.664177,0.73393899,-0.028527999,-0.67818803,-0.024077,-0.11690465,-1.4916847,0.042432479
2835395617184,0.6156089,0,,-0.002756154,-0.0054759357,-0.11359018,9.7556763,0.26176199,0.664177,0.73393899,-0.028527999,-0.67818803,-0.024077,-0.11690465,-1.4916847,0.042432479
2835397629696,0.61762141,0,,-0.002756154,-0.0054759357,-0.11359018,9.7556763,0.26176199,0.664177,0.73393899,-0.028527999,-0.67818803,-0.024077,-0.11690465,-1.4916847,0.042432479
2835399637216,0.61962893,0,,-0.0082296812,-0.010239392,-0.11895747,10.384945,0.205531,0.90047801,0.73391497,-0.028333999,-0.678213,-0.024318,-0.10924611,-1.4917958,0.034709205
2835401619616,0.62161133,0,,-0.0082296812,-0.010239392,-0.11895747,10.384945,0.205531,0.90047801,0.73391497,-0.028333999,-0.678213,-0.024318,-0.10924611,-1.4917958,0.034709205
2835403613248,0.62360496,0,,-0.0081496053,-0.0087047948,-0.1075252,9.6544714,0.53558803,0.70041001,0.73389298,-0.028135,-0.67823702,-0.024556,-0.10150948,-1.4919038,0.026915525
2835405618560,0.62561027,0,,-0.0081496053,-0.0087047948,-0.1075252,9.6544714,0.53558803,0.70041001,0.73389298,-0.028135,-0.67823702,-0.024556,-0.10150948,-1.4919038,0.026915525
2835407605760,0.62759747,0,,-0.0081496053,-0.0087047948,-0.1075252,9.6544714,0.53558803,0.70041001,0.73389298,-0.028135,-0.67823702,-0.024556,-0.10150948,-1.4919038,0.026915525
2835409642784,0.6296345,0,,-0.0035538569,0.00060798544,-0.049880882,9.4066372,0.526847,0.61713803,0.73387897,-0.027988,-0.67825198,-0.024738999,-0.095649053,-1.4919733,0.021005107
2835411601440,0.63159315,0,,-0.0035538569,0.00060798544,-0.049880882,9.4066372,0.526847,0.61713803,0.73387897,-0.027988,-0.67825198,-0.024738999,-0.095649053,-1.4919733,0.021005107
2835413805760,0.63379747,0,,-0.0035538569,0.00060798544,-0.049880882,9.4066372,0.526847,0.61713803,0.73387897,-0.027988,-0.67825198,-0.024738999,-0.095649053,-1.4919733,0.021005107
2835415603648,0.63559536,0,,0.0039903464,0.0014132454,-0.007240708,9.4607096,0.28719601,0.76285899,0.73387301,-0.02792,-0.678258,-0.024816001,-0.093069441,-1.4920036,0.018412578
2835417607872,0.63759958,0,,0.0039903464,0.0014132454,-0.007240708,9.4607096,0.28719601,0.76285899,0.73387301,-0.02792,-0.678258,-0.024816001,-0.093069441,-1.4920036,0.018412578
2835419596736,0.63958845,0,,0.005247245,0.0014442076,0.01413975,9.4258995,-0.097704999,0.67093897,0.73387802,-0.027903,-0.678253,-0.024817999,-0.092717804,-1.4919906,0.01808327
2835421591360,0.64158307,0,,0.005247245,0.0014442076,0.01413975,9.4258995,-0.097704999,0.67093897,0.73387802,-0.027903,-0.678253,-0.024817999,-0.092717804,-1.4919906,0.01808327
2835423634080,0.64362579,0,,0.0086559081,0.011398885,0.033882897,9.1769333,-0.055663001,0.67853302,0.73388702,-0.027935,-0.67824399,-0.024767,-0.094165731,-1.4919568,0.019557321
2835425621152,0.64561286,0,,0.0086559081,0.011398885,0.033882897,9.1769333,-0.055663001,0.67853302,0.73388702,-0.027935,-0.67824399,-0.024767,-0.094165731,-1.4919568,0.019557321
2835427631680,0.64762339,0,,0.0086559081,0.011398885,0.033882897,9.1769333,-0.055663001,0.67853302,0.73388702,-0.027935,-0.67824399,-0.024767,-0.094165731,-1.4919568,0.019557321
2835429624928,0.64961664,0,,0.011209081,0.020533833,0.057496362,8.8921537,0.177267,0.653714,0.733917,-0.027992001,-0.678213,-0.024668999,-0.096858653,-1.4918614,0.022308119
2835431631360,0.65162307,0,,0.011209081,0.020533833,0.057496362,8.8921537,0.177267,0.653714,0.733917,-0.027992001,-0.678213,-0.024668999,-0.096858653,-1.4918614,0.022308119
2835433811648,0.65380336,0,,0.011653074,0.023844444,0.079858015,9.0723467,0.34399399,0.69211799,0.73395801,-0.028074,-0.67817003,-0.024544001,-0.1004322,-1.4917247,0.02594191
2835435618816,0.65561053,0,,0.011653074,0.023844444,0.079858015,9.0723467,0.34399399,0.69211799,0.73395801,-0.028074,-0.67817003,-0.024544001,-0.1004322,-1.4917247,0.02594191
2835437687008,0.65767872,0,,0.011653074,0.023844444,0.079858015,9.0723467,0.34399399,0.69211799,0.73395801,-0.028074,-0.67817003,-0.024544001,-0.1004322,-1.4917247,0.02594191
2835439659616,0.65965133,0,,0.014804127,0.020347955,0.099749614,9.2478523,0.171077,0.79832399,0.73400098,-0.028186999,-0.67812401,-0.024374001,-0.10532745,-1.4915702,0.030917617
2835441649888,0.6616416,0,,0.014804127,0.020347955,0.099749614,9.2478523,0.171077,0.79832399,0.73400098,-0.028186999,-0.67812401,-0.024374001,-0.10532745,-1.4915702,0.030917617
2835443665184,0.6636569,0,,0.01788418,0.035505197,0.094258684,9.5026445,0.077736996,0.76112199,0.734056,-0.028308,-0.67806697,-0.024181999,-0.11070875,-1.4913807,0.036399782
2835445635040,0.66562675,0,,0.01788418,0.035505197,0.094258684,9.5026445,0.077736996,0.76112199,0.734056,-0.028308,-0.67806697,-0.024181999,-0.11070875,-1.4913807,0.036399782
2835447639456,0.66763117,0,,0.01788418,0.035505197,0.094258684,9.5026445,0.077736996,0.76112199,0.734056,-0.028308,-0.67806697,-0.024181999,-0.11070875,-1.4913807,0.036399782
2835449635616,0.66962733,0,,0.01223186,0.050075156,0.14721999,9.0008259,0.277731,0.66974598,0.73413801,-0.028467,-0.67798001,-0.023955001,-0.11727693,-1.4911002,0.043063781
2835451638144,0.67162986,0,,0.01223186,0.050075156,0.14721999,9.0008259,0.277731,0.66974598,0.73413801,-0.028467,-0.67798001,-0.023955001,-0.11727693,-1.4911002,0.043063781
2835453825504,0.67381722,0,,0.0019332314,0.04723678,0.22042537,9.3835573,0.31931299,0.85778898,0.73422998,-0.028756,-0.67787898,-0.023624999,-0.1278816,-1.4907521,0.053725597
2835455632032,0.67562374,0,,0.0019332314,0.04723678,0.22042537,9.3835573,0.31931299,0.85778898,0.73422998,-0.028756,-0.67787898,-0.023624999,-0.1278816,-1.4907521,0.053725597
2835457635968,0.67762768,0,,0.0019332314,0.04723678,0.22042537,9.3835573,0.31931299,0.85778898,0.73422998,-0.028756,-0.67787898,-0.023624999,-0.1278816,-1.4907521,0.053725597
2835459622752,0.67961446,0,,0.01330742,0.04898085,0.24938002,9.5096235,0.40534201,0.96539402,0.73432899,-0.029123001,-0.67777097,-0.023203,-0.14133185,-1.4903557,0.067252283
2835461626944,0.68161866,0,,0.01330742,0.04898085,0.24938002,9.5096235,0.40534201,0.96539402,0.73432899,-0.029123001,-0.67777097,-0.023203,-0.14133185,-1.4903557,0.067252283
2835463627808,0.68361952,0,,0.042479325,0.04864538,0.28191061,9.9401331,0.66894799,0.961658,0.73443598,-0.029495001,-0.67765498,-0.022699,-0.15605685,-1.4899008,0.082164287
2835465616800,0.68560851,0,,0.042479325,0.04864538,0.28191061,9.9401331,0.66894799,0.961658,0.73443598,-0.029495001,-0.67765498,-0.022699,-0.15605685,-1.4899008,0.082164287
2835467627872,0.68761958,0,,0.042479325,0.04864538,0.28191061,9.9401331,0.66894799,0.961658,0.73443598,-0.029495001,-0.67765498,-0.022699,-0.15605685,-1.4899008,0.082164287
2835469619456,0.68961117,0,,0.057471424,0.04621857,0.33653714,9.690546,0.83344799,0.99059302,0.73454398,-0.029888,-0.67754102,-0.022088001,-0.17277322,-1.4894081,0.099189751
2835471646336,0.69163805,0,,0.057471424,0.04621857,0.33653714,9.690546,0.83344799,0.99059302,0.73454398,-0.029888,-0.67754102,-0.022088001,-0.17277322,-1.4894081,0.099189751
2835473859264,0.69385098,0,,0.070578396,0.048448177,0.38818795,9.7657175,0.54170001,0.82586998,0.73465699,-0.030339001,-0.677423,-0.021358,-0.19224419,-1.4888425,0.11905432
2835475656128,0.69564784,0,,0.070578396,0.048448177,0.38818795,9.7657175,0.54170001,0.82586998,0.73465699,-0.030339001,-0.677423,-0.021358,-0.19224419,-1.4888425,0.11905432
2835477636320,0.69762803,0,,0.070578396,0.048448177,0.38818795,9.7657175,0.54170001,0.82586998,0.73465699,-0.030339001,-0.677423,-0.021358,-0.19224419,-1.4888425,0.11905432
2835479648864,0.69964058,0,,0.082242393,0.051920057,0.41953426,9.6986227,0.19607499,0.790824,0.73476702,-0.030854,-0.677306,-0.020523001,-0.2142586,-1.4882078,0.1415201
2835481645344,0.70163706,0,,0.082242393,0.051920057,0.41953426,9.6986227,0.19607499,0.790824,0.73476702,-0.030854,-0.677306,-0.020523001,-0.2142586,-1.4882078,0.1415201
2835483633728,0.70362544,0,,0.08360008,0.058974849,0.46221814,9.8296576,0.53907502,0.90461802,0.73488998,-0.031429,-0.67717302,-0.019601,-0.23826615,-1.4874519,0.166019
2835485632128,0.70562384,0,,0.08360008,0.058974849,0.46221814,9.8296576,0.53907502,0.90461802,0.73488998,-0.031429,-0.67717302,-0.019601,-0.23826615,-1.4874519,0.166019
2835487641280,0.70763299,0,,0.08360008,0.058974849,0.46221814,9.8296576,0.53907502,0.90461802,0.73488998,-0.031429,-0.67717302,-0.019601,-0.23826615,-1.4874519,0.166019
2835489634944,0.70962666,0,,0.097963166,0.052272696,0.55441544,9.8732567,1.122166,0.91129398,0.73501998,-0.032083001,-0.67703098,-0.018563,-0.26490991,-1.4865653,0.19320536
2835491629856,0.71162157,0,,0.097963166,0.052272696,0.55441544,9.8732567,1.122166,0.91129398,0.73501998,-0.032083001,-0.67703098,-0.018563,-0.26490991,-1.4865653,0.19320536
2835493813312,0.71380502,0,,0.11189623,0.052703271,0.69909976,9.8981905,0.50662601,1.019821,0.73514903,-0.032892998,-0.67688501,-0.017298,-0.29705418,-1.4854736,0.22599255
2835495635392,0.7156271,0,,0.11189623,0.052703271,0.69909976,9.8981905,0.50662601,1.019821,0.73514903,-0.032892998,-0.67688501,-0.017298,-0.29705418,-1.4854736,0.22599255
2835497631136,0.71762285,0,,0.11189623,0.052703271,0.69909976,9.8981905,0.50662601,1.019821,0.73514903,-0.032892998,-0.67688501,-0.017298,-0.29705418,-1.4854736,0.22599255
2835499622464,0.71961418,0,,0.098600959,0.040100598,0.77759776,10.36441,-0.90888399,1.075694,0.73527402,-0.033927999,-0.67673498,-0.015792999,-0.33561942,-1.4841038,0.26522068
2835501654720,0.72164643,0,,0.098600959,0.040100598,0.77759776,10.36441,-0.90888399,1.075694,0.73527402,-0.033927999,-0.67673498,-0.015792999,-0.33561942,-1.4841038,0.26522068
2835503612384,0.7236041,0,,0.096746009,0.050020403,0.79326521,10.198226,-1.204756,0.88748199,0.73539799,-0.035106,-0.67657697,-0.014159,-0.37697405,-1.4824649,0.3072192
2835505674656,0.72566637,0,,0.096746009,0.050020403,0.79326521,10.198226,-1.204756,0.88748199,0.73539799,-0.035106,-0.67657697,-0.014159,-0.37697405,-1.4824649,0.3072192
2835507619776,0.72761149,0,,0.096746009,0.050020403,0.79326521,10.198226,-1.204756,0.88748199,0.73539799,-0.035106,-0.67657697,-0.014159,-0.37697405,-1.4824649,0.3072192
2835509621696,0.72961341,0,,0.08928677,0.044094732,0.79538502,9.9127169,-0.66193098,0.80044198,0.73551601,-0.036311999,-0.67641699,-0.012514,-0.41738316,-1.480667,0.34824806
2835511619968,0.73161168,0,,0.08928677,0.044094732,0.79538502,9.9127169,-0.66193098,0.80044198,0.73551601,-0.036311999,-0.67641699,-0.012514,-0.41738316,-1.480667,0.34824806
2835513793600,0.73378531,0,,0.072683209,0.038288071,0.80105542,9.9136181,-1.2258869,0.62300098,0.73561299,-0.037526,-0.67627299,-0.010896,-0.45611511,-1.4787822,0.38754969
2835515599872,0.73559158,0,,0.072683209,0.038288071,0.80105542,9.9136181,-1.2258869,0.62300098,0.73561299,-0.037526,-0.67627299,-0.010896,-0.45611511,-1.4787822,0.38754969
2835517601984,0.7375937,0,,0.072683209,0.038288071,0.80105542,9.9136181,-1.2258869,0.62300098,0.73561299,-0.037526,-0.67627299,-0.010896,-0.45611511,-1.4787822,0.38754969
2835519600960,0.73959267,0,,0.060234595,0.040459734,0.81332727,9.155117,0.022799,1.220903,0.73570102,-0.038789,-0.67613,-0.0092730001,-0.49404538,-1.4767451,0.42598537
2835521596224,0.74158794,0,,0.060234595,0.040459734,0.81332727,9.155117,0.022799,1.220903,0.73570102,-0.038789,-0.67613,-0.0092730001,-0.49404538,-1.4767451,0.42598537
2835523604096,0.74359581,0,,0.072824373,0.033240528,0.87381138,9.1904259,0.236307,1.216966,0.73580599,-0.040088002,-0.67596,-0.00765,-0.53050722,-1.4744923,0.46290244
2835525597472,0.74558918,0,,0.072824373,0.033240528,0.87381138,9.1904259,0.236307,1.216966,0.73580599,-0.040088002,-0.67596,-0.00765,-0.53050722,-1.4744923,0.46290244
2835527593120,0.74758483,0,,0.072824373,0.033240528,0.87381138,9.1904259,0.236307,1.216966,0.73580599,-0.040088002,-0.67596,-0.00765,-0.53050722,-1.4744923,0.46290244
2835529598816,0.74959053,0,,0.072824373,0.033240528,0.87381138,9.1904259,0.236307,1.216966,0.73580599,-0.040088002,-0.67596,-0.00765,-0.53050722,-1.4744923,0.46290244
2835531605920,0.75159763,0,,0.072824373,0.033240528,0.87381138,9.1904259,0.236307,1.216966,0.73580599,-0.040088002,-0.67596,-0.00765,-0.53050722,-1.4744923,0.46290244
2835533785824,0.75377754,0,,0.072824373,0.033240528,0.87381138,9.1904259,0.236307,1.216966,0.73580599,-0.040088002,-0.67596,-0.00765,-0.53050722,-1.4744923,0.46290244
2835535597088,0.7555888,0,,0.08305484,0.017095902,0.85725345,9.9367228,-0.82888401,1.226493,0.73599499,-0.042734001,-0.675623,-0.0041919998,-0.6014242,-1.4694597,0.53496188
2835537613056,0.75760477,0,,0.08305484,0.017095902,0.85725345,9.9367228,-0.82888401,1.226493,0.73599499,-0.042734001,-0.675623,-0.0041919998,-0.6014242,-1.4694597,0.53496188
2835539653024,0.75964474,0,,0.092650242,0.0094469606,0.8090999,9.9753265,-1.406358,1.078246,0.736049,-0.043995,-0.67549199,-0.002506,-0.63360231,-1.4669397,0.56773734
2835541663488,0.7616552,0,,0.092650242,0.0094469606,0.8090999,9.9753265,-1.406358,1.078246,0.736049,-0.043995,-0.67549199,-0.002506,-0.63360231,-1.4669397,0.56773734
2835543676832,0.76366854,0,,0.089355205,0.011936953,0.74358094,9.4899397,-1.6199499,0.95776999,0.73608798,-0.045173999,-0.67537498,-0.00088900002,-0.6628291,-1.4644725,0.59757986
2835545629120,0.76562083,0,,0.089355205,0.011936953,0.74358094,9.4899397,-1.6199499,0.95776999,0.73608798,-0.045173999,-0.67537498,-0.00088900002,-0.6628291,-1.4644725,0.59757986
2835547638400,0.76763011,0,,0.089355205,0.011936953,0.74358094,9.4899397,-1.6199499,0.95776999,0.73608798,-0.045173999,-0.67537498,-0.00088900002,-0.6628291,-1.4644725,0.59757986
2835549624480,0.76961619,0,,0.072500799,0.013745445,0.67985163,10.106005,-1.744431,0.87177998,0.73612797,-0.046266001,-0.67525798,0.00059200003,-0.68841482,-1.4621087,0.62371672
2835551620672,0.77161238,0,,0.072500799,0.013745445,0.67985163,10.106005,-1.744431,0.87177998,0.73612797,-0.046266001,-0.67525798,0.00059200003,-0.68841482,-1.4621087,0.62371672
2835553828992,0.7738207,0,,0.072500799,0.013745445,0.67985163,10.106005,-1.744431,0.87177998,0.73612797,-0.046266001,-0.67525798,0.00059200003,-0.68841482,-1.4621087,0.62371672
2835555619872,0.77561158,0,,0.066782859,0.013245671,0.60989119,10.689318,-1.4771791,0.73031902,0.73615801,-0.047274999,-0.67515302,0.001938,-0.71093811,-1.4598904,0.64671245
2835557658560,0.77765027,0,,0.066782859,0.013245671,0.60989119,10.689318,-1.4771791,0.73031902,0.73615801,-0.047274999,-0.67515302,0.001938,-0.71093811,-1.4598904,0.64671245
2835559644992,0.7796367,0,,0.065314704,0.0030337314,0.52454173,11.119287,-0.95326698,0.36157399,0.73616898,-0.048137002,-0.67507499,0.003124,-0.73000468,-1.4579519,0.66623455
2835561635968,0.78162768,0,,0.065314704,0.0030337314,0.52454173,11.119287,-0.95326698,0.36157399,0.73616898,-0.048137002,-0.67507499,0.003124,-0.73000468,-1.4579519,0.66623455
2835563617152,0.78360886,0,,0.065015939,-0.0063719177,0.44020964,10.682023,-0.95435297,0.57884097,0.73614699,-0.048841,-0.675044,0.0041240002,-0.74585894,-1.4563765,0.68250574
2835565627328,0.78561904,0,,0.065015939,-0.0063719177,0.44020964,10.682023,-0.95435297,0.57884097,0.73614699,-0.048841,-0.675044,0.0041240002,-0.74585894,-1.4563765,0.68250574
2835567609376,0.78760109,0,,0.065015939,-0.0063719177,0.44020964,10.682023,-0.95435297,0.57884097,0.73614699,-0.048841,-0.675044,0.0041240002,-0.74585894,-1.4563765,0.68250574
2835569609632,0.78960134,0,,0.060635251,-0.01450105,0.34430568,10.16806,-1.732273,0.58667201,0.73611802,-0.049394999,-0.67502898,0.0049589998,-0.75861275,-1.455092,0.69565489
2835571671584,0.7916633,0,,0.060635251,-0.01450105,0.34430568,10.16806,-1.732273,0.58667201,0.73611802,-0.049394999,-0.67502898,0.0049589998,-0.75861275,-1.455092,0.69565489
2835573801088,0.7937928,0,,0.060635251,-0.01450105,0.34430568,10.16806,-1.732273,0.58667201,0.73611802,-0.049394999,-0.67502898,0.0049589998,-0.75861275,-1.455092,0.69565489
2835575630336,0.79562205,0,,0.045636732,-0.015028977,0.24575364,9.9629278,-2.3015499,0.48168999,0.73608398,-0.049835999,-0.67502898,0.005626,-0.76877225,-1.4540789,0.70613277
2835577605536,0.79759725,0,,0.045636732,-0.015028977,0.24575364,9.9629278,-2.3015499,0.48168999,0.73608398,-0.049835999,-0.67502898,0.005626,-0.76877225,-1.4540789,0.70613277
2835579606048,0.79959776,0,,0.030196464,-0.012938789,0.14117695,10.107457,-2.6350541,0.63223499,0.73604697,-0.050168,-0.67504001,0.0061050002,-0.77627777,-1.4533529,0.71384602
2835581597952,0.80158966,0,,0.030196464,-0.012938789,0.14117695,10.107457,-2.6350541,0.63223499,0.73604697,-0.050168,-0.67504001,0.0061050002,-0.77627777,-1.4533529,0.71384602
2835583599936,0.80359165,0,,0.020248018,-0.0091136733,0.024800028,10.126839,-2.6957171,0.58755201,0.73601902,-0.050340999,-0.67505598,0.0063680001,-0.78041898,-1.4529786,0.71811307
2835585605376,0.80559709,0,,0.020248018,-0.0091136733,0.024800028,10.126839,-2.6957171,0.58755201,0.73601902,-0.050340999,-0.67505598,0.0063680001,-0.78041898,-1.4529786,0.71811307
2835587594592,0.8075863,0,,0.020248018,-0.0091136733,0.024800028,10.126839,-2.6957171,0.58755201,0.73601902,-0.050340999,-0.67505598,0.0063680001,-0.78041898,-1.4529786,0.71811307
2835589589696,0.80958141,0,,0.0089374126,-0.010254264,-0.066159496,10.782217,-2.1329019,0.83073097,0.73599601,-0.050361998,-0.67507899,0.006418,-0.78139703,-1.4529572,0.71913326
2835591584416,0.81157613,0,,0.0089374126,-0.010254264,-0.066159496,10.782217,-2.1329019,0.83073097,0.73599601,-0.050361998,-0.67507899,0.006418,-0.78139703,-1.4529572,0.71913326
2835593783264,0.81377498,0,,-0.00052216761,-0.024113713,-0.10833121,10.552271,-1.642275,1.043553,0.73596501,-0.050255001,-0.67512101,0.0063080001,-0.78009521,-1.4532425,0.71782837
2835595632608,0.81562432,0,,-0.00052216761,-0.024113713,-0.10833121,10.552271,-1.642275,1.043553,0.73596501,-0.050255001,-0.67512101,0.0063080001,-0.78009521,-1.4532425,0.71782837
2835597633824,0.81762554,0,,-0.00052216761,-0.024113713,-0.10833121,10.552271,-1.642275,1.043553,0.73596501,-0.050255001,-0.67512101,0.0063080001,-0.78009521,-1.4532425,0.71782837
2835599622976,0.81961469,0,,-0.014814093,-0.029726606,-0.12072498,10.403828,-1.611953,1.208683,0.73592597,-0.050103001,-0.67517698,0.0061169998,-0.77787334,-1.4536721,0.71555104
2835601636224,0.82162794,0,,-0.014814093,-0.029726606,-0.12072498,10.403828,-1.611953,1.208683,0.73592597,-0.050103001,-0.67517698,0.0061169998,-0.77787334,-1.4536721,0.71555104
2835603655328,0.82364704,0,,-0.027919491,-0.040745516,-0.13902778,10.134504,-1.443204,1.038347,0.73587698,-0.049947999,-0.67524397,0.0058849999,-0.77543794,-1.4541645,0.71300719
2835605639200,0.82563091,0,,-0.027919491,-0.040745516,-0.13902778,10.134504,-1.443204,1.038347,0.73587698,-0.049947999,-0.67524397,0.0058849999,-0.77543794,-1.4541645,0.71300719
2835607644672,0.82763638,0,,-0.027919491,-0.040745516,-0.13902778,10.134504,-1.443204,1.038347,0.73587698,-0.049947999,-0.67524397,0.0058849999,-0.77543794,-1.4541645,0.71300719
2835609631680,0.82962339,0,,-0.03427666,-0.037198185,-0.15999508,9.6083364,-0.98214197,0.719172,0.735816,-0.049771998,-0.67532599,0.0055880002,-0.77245247,-1.4547672,0.70985021
2835611625792,0.8316175,0,,-0.03427666,-0.037198185,-0.15999508,9.6083364,-0.98214197,0.719172,0.735816,-0.049771998,-0.67532599,0.0055880002,-0.77245247,-1.4547672,0.70985021
2835613808512,0.83380022,0,,-0.035926418,-0.032197014,-0.14744803,9.4016619,-0.50160497,0.56932998,0.73575097,-0.049584001,-0.67541301,0.0052530002,-0.76908404,-1.4554278,0.70627538
2835615605024,0.83559674,0,,-0.035926418,-0.032197014,-0.14744803,9.4016619,-0.50160497,0.56932998,0.73575097,-0.049584001,-0.67541301,0.0052530002,-0.76908404,-1.4554278,0.70627538
2835617604320,0.83759603,0,,-0.035926418,-0.032197014,-0.14744803,9.4016619,-0.50160497,0.56932998,0.73575097,-0.049584001,-0.67541301,0.0052530002,-0.76908404,-1.4554278,0.70627538
2835619608928,0.83960064,0,,-0.042970217,-0.020524165,-0.13283858,8.8809481,0.124253,0.48011401,0.73569602,-0.049412001,-0.675488,0.0049089999,-0.76558238,-1.4560514,0.70253151
2835621604608,0.84159632,0,,-0.042970217,-0.020524165,-0.13283858,8.8809481,0.124253,0.48011401,0.73569602,-0.049412001,-0.675488,0.0049089999,-0.76558238,-1.4560514,0.70253151
2835623596768,0.84358848,0,,-0.042970217,-0.020524165,-0.13283858,8.8809481,0.124253,0.48011401,0.73569602,-0.049412001,-0.675488,0.0049089999,-0.76558238,-1.4560514,0.70253151
2835625613312,0.84560502,0,,-0.02900601,-0.012538847,-0.099082059,9.1204739,0.384087,0.42432901,0.73565799,-0.049254,-0.67554402,0.0045969998,-0.76214757,-1.4565976,0.69888045
2835627600544,0.84759226,0,,-0.02900601,-0.012538847,-0.099082059,9.1204739,0.384087,0.42432901,0.73565799,-0.049254,-0.67554402,0.0045969998,-0.76214757,-1.4565976,0.69888045
2835629594464,0.84958618,0,,-0.030656656,-0.012239697,-0.068720209,8.9974518,0.54286402,0.49513,0.73562098,-0.049127001,-0.67559499,0.00434,-0.75940744,-1.4570515,0.6959565
2835631593088,0.8515848,0,,-0.030656656,-0.012239697,-0.068720209,8.9974518,0.54286402,0.49513,0.73562098,-0.049127001,-0.67559499,0.00434,-0.75940744,-1.4570515,0.6959565
2835633812864,0.85380458,0,,-0.030656656,-0.012239697,-0.068720209,8.9974518,0.54286402,0.49513,0.73562098,-0.049127001,-0.67559499,0.00434,-0.75940744,-1.4570515,0.6959565
2835635592512,0.85558422,0,,-0.028929827,-0.0071784696,-0.029651817,9.0243158,0.62245101,0.433662,0.73558998,-0.049052998,-0.67563498,0.0041379998,-0.75750182,-1.4573877,0.69387024
2835637620672,0.85761238,0,,-0.028929827,-0.0071784696,-0.029651817,9.0243158,0.62245101,0.433662,0.73558998,-0.049052998,-0.67563498,0.0041379998,-0.75750182,-1.4573877,0.69387024
2835639614144,0.85960586,0,,-0.005949775,-0.0020330642,-0.010251942,9.0933027,0.51079899,0.76445401,0.73557103,-0.049001001,-0.67566103,0.0040099998,-0.75626498,-1.4576032,0.69252555
2835641629600,0.86162131,0,,-0.005949775,-0.0020330642,-0.010251942,9.0933027,0.51079899,0.76445401,0.73557103,-0.049001001,-0.67566103,0.0040099998,-0.75626498,-1.4576032,0.69252555
2835643663392,0.8636551,0,,0.0077618808,-0.0086758049,0.0097150962,9.3718061,-0.175188,0.90767097,0.73556399,-0.048946001,-0.67567301,0.0039610001,-0.75543694,-1.457721,0.69170476
2835645603520,0.86559523,0,,0.0077618808,-0.0086758049,0.0097150962,9.3718061,-0.175188,0.90767097,0.73556399,-0.048946001,-0.67567301,0.0039610001,-0.75543694,-1.457721,0.69170476
2835647597536,0.86758925,0,,0.0077618808,-0.0086758049,0.0097150962,9.3718061,-0.175188,0.90767097,0.73556399,-0.048946001,-0.67567301,0.0039610001,-0.75543694,-1.457721,0.69170476
2835649595584,0.8695873,0,,0.01154078,-0.013198371,0.010555088,9.5933552,-0.43792599,0.91718102,0.73554999,-0.048919,-0.67568898,0.0039789998,-0.75556257,-1.4577606,0.69189491
2835651586688,0.8715784,0,,0.01154078,-0.013198371,0.010555088,9.5933552,-0.43792599,0.91718102,0.73554999,-0.048919,-0.67568898,0.0039789998,-0.75556257,-1.4577606,0.69189491
2835653788576,0.87378029,0,,0.01154078,-0.013198371,0.010555088,9.5933552,-0.43792599,0.91718102,0.73554999,-0.048919,-0.67568898,0.0039789998,-0.75556257,-1.4577606,0.69189491
2835655673120,0.87566483,0,,0.015563729,-0.011105966,0.014853311,9.8200111,-0.53449601,0.86834198,0.73553598,-0.048898999,-0.67570502,0.004011,-0.75589347,-1.4577812,0.69230078
2835657660992,0.8776527,0,,0.015563729,-0.011105966,0.014853311,9.8200111,-0.53449601,0.86834198,0.73553598,-0.048898999,-0.67570502,0.004011,-0.75589347,-1.4577812,0.69230078
2835659608128,0.87959984,0,,0.019434241,-0.013858508,0.010625407,10.276513,-1.164925,1.158812,0.73551899,-0.04888,-0.67572498,0.0040589999,-0.75642151,-1.4577955,0.69292302
2835661625920,0.88161763,0,,0.019434241,-0.013858508,0.010625407,10.276513,-1.164925,1.158812,0.73551899,-0.04888,-0.67572498,0.0040589999,-0.75642151,-1.4577955,0.69292302
2835663623840,0.88361555,0,,0.019434241,-0.013858508,0.010625407,10.276513,-1.164925,1.158812,0.73551899,-0.04888,-0.67572498,0.0040589999,-0.75642151,-1.4577955,0.69292302
2835665603104,0.88559482,0,,0.025279611,-0.017433797,-1.7488198e-05,10.899432,-1.592368,1.62546,0.735511,-0.048856001,-0.675735,0.004129,-0.7569361,-1.4577722,0.6935705
2835667608032,0.88759974,0,,0.025279611,-0.017433797,-1.7488198e-05,10.899432,-1.592368,1.62546,0.735511,-0.048856001,-0.675735,0.004129,-0.7569361,-1.4577722,0.6935705
2835669605760,0.88959747,0,,0.043079506,-0.039710378,-0.013826551,11.076849,-1.797109,1.706,0.73549402,-0.048801001,-0.67575699,0.0042209998,-0.75749729,-1.4577759,0.69434082
2835671657792,0.8916495,0,,0.043079506,-0.039710378,-0.013826551,11.076849,-1.797109,1.706,0.73549402,-0.048801001,-0.67575699,0.0042209998,-0.75749729,-1.4577759,0.69434082
2835673819968,0.89381168,0,,0.043079506,-0.039710378,-0.013826551,11.076849,-1.797109,1.706,0.73549402,-0.048801001,-0.67575699,0.0042209998,-0.75749729,-1.4577759,0.69434082
2835675673472,0.89566518,0,,0.048619306,-0.049488062,-0.035852744,10.723788,-2.302233,1.407946,0.735457,-0.048696999,-0.67580402,0.0043139998,-0.75796607,-1.4578774,0.69508824
2835677619232,0.89761094,0,,0.048619306,-0.049488062,-0.035852744,10.723788,-2.302233,1.407946,0.735457,-0.048696999,-0.67580402,0.0043139998,-0.75796607,-1.4578774,0.69508824
2835679599456,0.89959117,0,,0.04974363,-0.051252011,-0.073378161,10.475648,-2.332459,1.298417,0.73539901,-0.048565,-0.67587698,0.004371,-0.75821242,-1.4580855,0.6956037
2835681602208,0.90159392,0,,0.04974363,-0.051252011,-0.073378161,10.475648,-2.332459,1.298417,0.73539901,-0.048565,-0.67587698,0.004371,-0.75821242,-1.4580855,0.6956037
2835683600160,0.90359187,0,,0.046020352,-0.062637736,-0.10718047,10.609348,-1.887004,0.43614301,0.73532802,-0.048377,-0.67596698,0.0043629999,-0.75759023,-1.4584417,0.69523631
2835685596960,0.90558867,0,,0.046020352,-0.062637736,-0.10718047,10.609348,-1.887004,0.43614301,0.73532802,-0.048377,-0.67596698,0.0043629999,-0.75759023,-1.4584417,0.69523631
2835687604768,0.90759648,0,,0.046020352,-0.062637736,-0.10718047,10.609348,-1.887004,0.43614301,0.73532802,-0.048377,-0.67596698,0.0043629999,-0.75759023,-1.4584417,0.69523631
2835689614656,0.90960637,0,,0.048014739,-0.054219089,-0.1337506,10.021384,0.67020297,-0.33813,0.73521501,-0.048149001,-0.67610699,0.004253,-0.75644181,-1.4590248,0.69425614
2835691614368,0.91160608,0,,0.048014739,-0.054219089,-0.1337506,10.021384,0.67020297,-0.33813,0.73521501,-0.048149001,-0.67610699,0.004253,-0.75644181,-1.4590248,0.69425614
2835693791456,0.91378317,0,,0.0656278,-0.036938148,-0.14074182,8.6984634,0.45126399,0.079814002,0.735098,-0.047770999,-0.67626202,0.0040130001,-0.75273416,-1.4598954,0.69074616
2835695647584,0.9156393,0,,0.0656278,-0.036938148,-0.14074182,8.6984634,0.45126399,0.079814002,0.735098,-0.047770999,-0.67626202,0.0040130001,-0.75273416,-1.4598954,0.69074616
2835697607776,0.91759949,0,,0.0656278,-0.036938148,-0.14074182,8.6984634,0.45126399,0.079814002,0.735098,-0.047770999,-0.67626202,0.0040130001,-0.75273416,-1.4598954,0.69074616
2835699594752,0.91958646,0,,0.050191095,-0.023890032,-0.1348787,7.9152532,-0.70050102,0.37579501,0.73503101,-0.047398001,-0.67636299,0.0038000001,-0.748402,-1.4606206,0.68664156
2835701593920,0.92158563,0,,0.050191095,-0.023890032,-0.1348787,7.9152532,-0.70050102,0.37579501,0.73503101,-0.047398001,-0.67636299,0.0038000001,-0.748402,-1.4606206,0.68664156
2835703587584,0.9235793,0,,0.038910735,-0.0084514429,-0.12551244,8.1606417,-1.078405,0.62895697,0.73500001,-0.047104999,-0.67641801,0.003633,-0.74457317,-1.4611411,0.6829917
2835705653920,0.92564563,0,,0.038910735,-0.0084514429,-0.12551244,8.1606417,-1.078405,0.62895697,0.73500001,-0.047104999,-0.67641801,0.003633,-0.74457317,-1.4611411,0.6829917
2835707594240,0.92758595,0,,0.038910735,-0.0084514429,-0.12551244,8.1606417,-1.078405,0.62895697,0.73500001,-0.047104999,-0.67641801,0.003633,-0.74457317,-1.4611411,0.6829917
2835709591776,0.92958349,0,,0.03358195,-0.0021551326,-0.10793407,9.1820259,-0.80624402,0.90849799,0.73499697,-0.046866998,-0.67643899,0.0034940001,-0.74101046,-1.4615163,0.6795706
2835711629536,0.93162125,0,,0.03358195,-0.0021551326,-0.10793407,9.1820259,-0.80624402,0.90849799,0.73499697,-0.046866998,-0.67643899,0.0034940001,-0.74101046,-1.4615163,0.6795706
2835713784096,0.93377581,0,,0.03293513,-0.014619017,-0.10555799,10.376815,-0.483327,0.941625,0.73499697,-0.046622001,-0.67645597,0.003369,-0.73741952,-1.4618728,0.67614977
2835715610176,0.93560189,0,,0.03293513,-0.014619017,-0.10555799,10.376815,-0.483327,0.941625,0.73499697,-0.046622001,-0.67645597,0.003369,-0.73741952,-1.4618728,0.67614977
2835717618880,0.93761059,0,,0.03293513,-0.014619017,-0.10555799,10.376815,-0.483327,0.941625,0.73499697,-0.046622001,-0.67645597,0.003369,-0.73741952,-1.4618728,0.67614977
2835719621504,0.93961322,0,,0.018527718,-0.029152898,-0.10357007,10.579362,-0.62868899,0.87894303,0.73496503,-0.046386,-0.67650801,0.003207,-0.73412905,-1.4623295,0.6729645
2835721616256,0.94160797,0,,0.018527718,-0.029152898,-0.10357007,10.579362,-0.62868899,0.87894303,0.73496503,-0.046386,-0.67650801,0.003207,-0.73412905,-1.4623295,0.6729645
2835723631072,0.94362278,0,,0.011389617,-0.021537556,-0.12003483,10.169343,-1.243131,0.86185998,0.73492599,-0.046161998,-0.676566,0.003027,-0.73088639,-1.4628067,0.66978595
2835725633664,0.94562538,0,,0.011389617,-0.021537556,-0.12003483,10.169343,-1.243131,0.86185998,0.73492599,-0.046161998,-0.676566,0.003027,-0.73088639,-1.4628067,0.66978595
2835727641664,0.94763338,0,,0.011389617,-0.021537556,-0.12003483,10.169343,-1.243131,0.86185998,0.73492599,-0.046161998,-0.676566,0.003027,-0.73088639,-1.4628067,0.66978595
2835729621824,0.94961354,0,,0.00021755529,-0.023774543,-0.15073017,10.115015,-1.5553089,0.81915301,0.73489302,-0.045945,-0.67661798,0.002809,-0.72724924,-1.4632922,0.66614813
2835731617824,0.95160954,0,,0.00021755529,-0.023774543,-0.15073017,10.115015,-1.5553089,0.81915301,0.73489302,-0.045945,-0.67661798,0.002809,-0.72724924,-1.4632922,0.66614813
2835733816480,0.95380819,0,,-0.0088575812,-0.022617443,-0.18774277,9.9978752,-1.002941,0.70345598,0.734855,-0.045697,-0.67667699,0.0025269999,-0.72270063,-1.4638793,0.66155292
2835735637984,0.9556297,0,,-0.0088575812,-0.022617443,-0.18774277,9.9978752,-1.002941,0.70345598,0.734855,-0.045697,-0.67667699,0.0025269999,-0.72270063,-1.4638793,0.66155292
2835737631648,0.95762336,0,,-0.0088575812,-0.022617443,-0.18774277,9.9978752,-1.002941,0.70345598,0.734855,-0.045697,-0.67667699,0.0025269999,-0.72270063,-1.4638793,0.66155292
2835739642528,0.95963424,0,,-0.018834389,-0.025038493,-0.21119204,10.402395,-0.60385901,0.88305598,0.73481202,-0.045405999,-0.676745,0.002146,-0.71682889,-1.4646056,0.65555408
2835741644704,0.96163642,0,,-0.018834389,-0.025038493,-0.21119204,10.402395,-0.60385901,0.88305598,0.73481202,-0.045405999,-0.676745,0.002146,-0.71682889,-1.4646056,0.65555408
2835743719968,0.96371168,0,,-0.01748244,-0.019934697,-0.2486472,10.336523,-0.70276898,0.99941999,0.73477298,-0.045042001,-0.67681199,0.001688,-0.70924514,-1.4654549,0.6478369
2835745624448,0.96561616,0,,-0.01748244,-0.019934697,-0.2486472,10.336523,-0.70276898,0.99941999,0.73477298,-0.045042001,-0.67681199,0.001688,-0.70924514,-1.4654549,0.6478369
2835747619808,0.96761152,0,,-0.01748244,-0.019934697,-0.2486472,10.336523,-0.70276898,0.99941999,0.73477298,-0.045042001,-0.67681199,0.001688,-0.70924514,-1.4654549,0.6478369
2835749615840,0.96960755,0,,-0.021214215,-0.013094926,-0.26753727,10.175101,-0.807181,0.99428302,0.73475099,-0.044638999,-0.67686498,0.0011840001,-0.70037974,-1.4663422,0.63883169
2835751617952,0.97160966,0,,-0.021214215,-0.013094926,-0.26753727,10.175101,-0.807181,0.99428302,0.73475099,-0.044638999,-0.67686498,0.0011840001,-0.70037974,-1.4663422,0.63883169
2835753796736,0.97378845,0,,-0.026756299,-0.022528535,-0.27937209,9.9977798,-0.77424902,0.78644997,0.73472899,-0.044216,-0.67691702,0.00065499998,-0.6908889,-1.4672541,0.62919065
2835755612832,0.97560454,0,,-0.026756299,-0.022528535,-0.27937209,9.9977798,-0.77424902,0.78644997,0.73472899,-0.044216,-0.67691702,0.00065499998,-0.6908889,-1.4672541,0.62919065
2835757608704,0.97760042,0,,-0.026756299,-0.022528535,-0.27937209,9.9977798,-0.77424902,0.78644997,0.73472899,-0.044216,-0.67691702,0.00065499998,-0.6908889,-1.4672541,0.62919065
2835759627296,0.97961901,0,,-0.027166276,-0.037305644,-0.31989625,9.5901928,-0.603944,0.68470699,0.73467201,-0.043768998,-0.67700797,6.5e-05,-0.68093241,-1.468316,0.61903429
2835761612352,0.98160406,0,,-0.027166276,-0.037305644,-0.31989625,9.5901928,-0.603944,0.68470699,0.73467201,-0.043768998,-0.67700797,6.5e-05,-0.68093241,-1.468316,0.61903429
2835763605792,0.9835975,0,,-0.025996888,-0.029257059,-0.35332428,8.9867687,-0.80556798,0.44818899,0.73460799,-0.043249998,-0.67711097,-0.00059900002,-0.66927495,-1.469511,0.6071723
2835765609376,0.98560109,0,,-0.025996888,-0.029257059,-0.35332428,8.9867687,-0.80556798,0.44818899,0.73460799,-0.043249998,-0.67711097,-0.00059900002,-0.66927495,-1.469511,0.6071723
2835767587520,0.98757923,0,,-0.025996888,-0.029257059,-0.35332428,8.9867687,-0.80556798,0.44818899,0.73460799,-0.043249998,-0.67711097,-0.00059900002,-0.66927495,-1.469511,0.6071723
2835769623808,0.98961552,0,,-0.02775817,-0.020490497,-0.39998399,8.9439306,-0.916336,0.49248901,0.73455298,-0.042677999,-0.67720598,-0.001331,-0.6558415,-1.4707719,0.59351235
2835771660128,0.99165184,0,,-0.02775817,-0.020490497,-0.39998399,8.9439306,-0.916336,0.49248901,0.73455298,-0.042677999,-0.67720598,-0.001331,-0.6558415,-1.4707719,0.59351235
2835773820896,0.99381261,0,,-0.034725698,-0.026227098,-0.45507754,9.1231298,-0.99346602,0.52453899,0.73449898,-0.042036999,-0.677302,-0.002165,-0.64008198,-1.4721532,0.57748331
2835775640672,0.99563238,0,,-0.034725698,-0.026227098,-0.45507754,9.1231298,-0.99346602,0.52453899,0.73449898,-0.042036999,-0.677302,-0.002165,-0.64008198,-1.4721532,0.57748331
2835777637792,0.9976295,0,,-0.034725698,-0.026227098,-0.45507754,9.1231298,-0.99346602,0.52453899,0.73449898,-0.042036999,-0.677302,-0.002165,-0.64008198,-1.4721532,0.57748331
2835779614176,0.99960589,0,,-0.03551349,-0.020462363,-0.51299929,8.9297352,-1.023958,0.47934499,0.73444498,-0.041306,-0.67740202,-0.0031000001,-0.62160497,-1.4736658,0.55871994
2835781619616,1.0016113,0,,-0.03551349,-0.020462363,-0.51299929,8.9297352,-1.023958,0.47934499,0.73444498,-0.041306,-0.67740202,-0.0031000001,-0.62160497,-1.4736658,0.55871994
2835783620736,1.0036124,0,,-0.0471766,-0.0070728768,-0.55882181,9.0022449,-0.87348199,0.60353297,0.73440403,-0.0405,-0.67748898,-0.0041419999,-0.60008243,-1.4752478,0.53686508
2835785616352,1.0056081,0,,-0.0471766,-0.0070728768,-0.55882181,9.0022449,-0.87348199,0.60353297,0.73440403,-0.0405,-0.67748898,-0.0041419999,-0.60008243,-1.4752478,0.53686508
2835787630688,1.0076224,0,,-0.0471766,-0.0070728768,-0.55882181,9.0022449,-0.87348199,0.60353297,0.73440403,-0.0405,-0.67748898,-0.0041419999,-0.60008243,-1.4752478,0.53686508
2835789663872,1.0096556,0,,-0.057801585,-0.00060254,-0.57462108,9.6100063,-1.0082279,0.71134102,0.73438001,-0.039655,-0.67755699,-0.0052660001,-0.57604128,-1.4768321,0.51243164
2835791611648,1.0116034,0,,-0.057801585,-0.00060254,-0.57462108,9.6100063,-1.0082279,0.71134102,0.73438001,-0.039655,-0.67755699,-0.0052660001,-0.57604128,-1.4768321,0.51243164
2835793805088,1.0137968,0,,-0.057801585,-0.00060254,-0.57462108,9.6100063,-1.0082279,0.71134102,0.73438001,-0.039655,-0.67755699,-0.0052660001,-0.57604128,-1.4768321,0.51243164
2835795609024,1.0156007,0,,-0.052956729,-5.5169859e-05,-0.58810167,10.594367,-0.94008201,0.94082803,0.73436701,-0.038796999,-0.67761201,-0.0064110002,-0.5505477,-1.4783504,0.4865325
2835797604128,1.0175958,0,,-0.052956729,-5.5169859e-05,-0.58810167,10.594367,-0.94008201,0.94082803,0.73436701,-0.038796999,-0.67761201,-0.0064110002,-0.5505477,-1.4783504,0.4865325
2835799633120,1.0196248,0,,-0.055516656,-0.012986943,-0.60508059,10.539068,-0.84282202,0.95204097,0.73434502,-0.037898,-0.677674,-0.0075759999,-0.52349648,-1.4798692,0.45910773
2835801621024,1.0216127,0,,-0.055516656,-0.012986943,-0.60508059,10.539068,-0.84282202,0.95204097,0.73434502,-0.037898,-0.677674,-0.0075759999,-0.52349648,-1.4798692,0.45910773
2835803647008,1.0236387,0,,-0.065277461,-0.0086287335,-0.61808041,10.339643,-0.81830299,0.80086601,0.73431301,-0.036982998,-0.67774498,-0.0087829996,-0.49487222,-1.4813804,0.43007189
2835805619328,1.025611,0,,-0.065277461,-0.0086287335,-0.61808041,10.339643,-0.81830299,0.80086601,0.73431301,-0.036982998,-0.67774498,-0.0087829996,-0.49487222,-1.4813804,0.43007189
2835807598368,1.0275901,0,,-0.065277461,-0.0086287335,-0.61808041,10.339643,-0.81830299,0.80086601,0.73431301,-0.036982998,-0.67774498,-0.0087829996,-0.49487222,-1.4813804,0.43007189
2835809600512,1.0295922,0,,-0.067662347,-0.010716287,-0.60809176,10.317048,-0.442561,0.83078897,0.73427802,-0.036079001,-0.67781401,-0.010009,-0.46517901,-1.4828165,0.39992367
2835811595200,1.0315869,0,,-0.067662347,-0.010716287,-0.60809176,10.317048,-0.442561,0.83078897,0.73427802,-0.036079001,-0.67781401,-0.010009,-0.46517901,-1.4828165,0.39992367
2835813785344,1.0337771,0,,-0.067662347,-0.010716287,-0.60809176,10.317048,-0.442561,0.83078897,0.73427802,-0.036079001,-0.67781401,-0.010009,-0.46517901,-1.4828165,0.39992367
2835815592864,1.0355846,0,,-0.067450255,-0.011838359,-0.58541487,9.9860229,-0.25873598,0.82380301,0.73423702,-0.035195999,-0.67788702,-0.011217,-0.43517707,-1.4841652,0.36946363
2835817591232,1.0375829,0,,-0.067450255,-0.011838359,-0.58541487,9.9860229,-0.25873598,0.82380301,0.73423702,-0.035195999,-0.67788702,-0.011217,-0.43517707,-1.4841652,0.36946363
2835819586240,1.039578,0,,-0.059479668,-0.0087232955,-0.57727412,9.7455816,-0.174383,0.83819801,0.73419797,-0.034322001,-0.677953,-0.012396,-0.40478178,-1.4853959,0.33863951
2835821588224,1.0415799,0,,-0.059479668,-0.0087232955,-0.57727412,9.7455816,-0.174383,0.83819801,0.73419797,-0.034322001,-0.677953,-0.012396,-0.40478178,-1.4853959,0.33863951
2835823592352,1.0435841,0,,-0.05842137,-0.014706808,-0.55836924,9.6526451,-0.100625,0.81025702,0.73415798,-0.033457,-0.67801702,-0.013543,-0.37413292,-1.4865312,0.30759248
2835825616160,1.0456079,0,,-0.05842137,-0.014706808,-0.55836924,9.6526451,-0.100625,0.81025702,0.73415798,-0.033457,-0.67801702,-0.013543,-0.37413292,-1.4865312,0.30759248
2835827621920,1.0476136,0,,-0.05842137,-0.014706808,-0.55836924,9.6526451,-0.100625,0.81025702,0.73415798,-0.033457,-0.67801702,-0.013543,-0.37413292,-1.4865312,0.30759248
2835829610656,1.0496024,0,,-0.053319181,-0.012102375,-0.52532371,9.0786142,0.341162,0.73741698,0.73411202,-0.032628,-0.67808402,-0.014646,-0.34401723,-1.4875572,0.27708971
2835831611648,1.0516034,0,,-0.053319181,-0.012102375,-0.52532371,9.0786142,0.341162,0.73741698,0.73411202,-0.032628,-0.67808402,-0.014646,-0.34401723,-1.4875572,0.27708971
2835833798880,1.0537906,0,,-0.041078453,-0.01201448,-0.47224358,9.2357111,-0.26823398,0.91448897,0.73407197,-0.031846002,-0.67814302,-0.015665,-0.31525153,-1.4884358,0.24798957
2835835611936,1.0556036,0,,-0.041078453,-0.01201448,-0.47224358,9.2357111,-0.26823398,0.91448897,0.73407197,-0.031846002,-0.67814302,-0.015665,-0.31525153,-1.4884358,0.24798957
2835837623136,1.0576148,0,,-0.041078453,-0.01201448,-0.47224358,9.2357111,-0.26823398,0.91448897,0.73407197,-0.031846002,-0.67814302,-0.015665,-0.31525153,-1.4884358,0.24798957
2835839623104,1.0596148,0,,-0.041078453,-0.01201448,-0.47224358,9.2357111,-0.26823398,0.91448897,0.73407197,-0.031846002,-0.67814302,-0.015665,-0.31525153,-1.4884358,0.24798957
2835841630528,1.0616222,0,,-0.041078453,-0.01201448,-0.47224358,9.2357111,-0.26823398,0.91448897,0.73407197,-0.031846002,-0.67814302,-0.015665,-0.31525153,-1.4884358,0.24798957
2835843676224,1.0636679,0,,-0.062623147,0.0031800247,-0.51172371,9.343895,-0.53675503,0.72841901,0.73399103,-0.030464999,-0.67824602,-0.017608,-0.26069659,-1.4898713,0.19264147
2835845620160,1.0656119,0,,-0.062623147,0.0031800247,-0.51172371,9.343895,-0.53675503,0.72841901,0.73399103,-0.030464999,-0.67824602,-0.017608,-0.26069659,-1.4898713,0.19264147
2835847623520,1.0676152,0,,-0.062623147,0.0031800247,-0.51172371,9.343895,-0.53675503,0.72841901,0.73399103,-0.030464999,-0.67824602,-0.017608,-0.26069659,-1.4898713,0.19264147
2835849623232,1.0696149,0,,-0.060891273,0.0075928803,-0.53841374,9.1948166,-0.64977098,0.31341401,0.73397201,-0.029695,-0.67827302,-0.01866,-0.2298084,-1.4904737,0.16135456
2835851630208,1.0716219,0,,-0.060891273,0.0075928803,-0.53841374,9.1948166,-0.64977098,0.31341401,0.73397201,-0.029695,-0.67827302,-0.01866,-0.2298084,-1.4904737,0.16135456
2835853804800,1.0737965,0,,-0.076322635,0.024007842,-0.53318163,8.9295845,-0.616377,0.47486901,0.73395199,-0.028943,-0.67829502,-0.019764001,-0.19792129,-1.4910006,0.12896896
2835855621568,1.0756133,0,,-0.076322635,0.024007842,-0.53318163,8.9295845,-0.616377,0.47486901,0.73395199,-0.028943,-0.67829502,-0.019764001,-0.19792129,-1.4910006,0.12896896
2835857609856,1.0776016,0,,-0.076322635,0.024007842,-0.53318163,8.9295845,-0.616377,0.47486901,0.73395199,-0.028943,-0.67829502,-0.019764001,-0.19792129,-1.4910006,0.12896896
2835859608704,1.0796004,0,,-0.086417905,0.028987283,-0.49811639,9.6226091,-0.216427,0.67882299,0.73395699,-0.028245,-0.67828697,-0.020842001,-0.16694683,-1.4913552,0.097457298
2835861608480,1.0816002,0,,-0.086417905,0.028987283,-0.49811639,9.6226091,-0.216427,0.67882299,0.73395699,-0.028245,-0.67828697,-0.020842001,-0.16694683,-1.4913552,0.097457298
2835863608672,1.0836004,0,,-0.082453015,0.02673841,-0.45398831,9.6732082,0.113856,0.89522499,0.73396999,-0.027597001,-0.67826802,-0.021862,-0.1375969,-1.4915874,0.06758147
2835865608352,1.0856001,0,,-0.082453015,0.02673841,-0.45398831,9.6732082,0.113856,0.89522499,0.73396999,-0.027597001,-0.67826802,-0.021862,-0.1375969,-1.4915874,0.06758147
2835867621184,1.0876129,0,,-0.082453015,0.02673841,-0.45398831,9.6732082,0.113856,0.89522499,0.73396999,-0.027597001,-0.67826802,-0.021862,-0.1375969,-1.4915874,0.06758147
2835869605472,1.0895972,0,,-0.080450202,0.025058128,-0.40742556,10.108331,0.47293499,1.004137,0.73399001,-0.026999,-0.67823899,-0.022798,-0.11045484,-1.4917088,0.039959226
2835871651072,1.0916428,0,,-0.080450202,0.025058128,-0.40742556,10.108331,0.47293499,1.004137,0.73399001,-0.026999,-0.67823899,-0.022798,-0.11045484,-1.4917088,0.039959226
2835873819072,1.0938108,0,,-0.072735465,0.025258701,-0.35043418,9.8411264,0.22362299,0.81696898,0.73401201,-0.026465001,-0.67820799,-0.023646001,-0.085943779,-1.4917557,0.015005398
2835875652992,1.0956447,0,,-0.072735465,0.025258701,-0.35043418,9.8411264,0.22362299,0.81696898,0.73401201,-0.026465001,-0.67820799,-0.023646001,-0.085943779,-1.4917557,0.015005398
2835877593568,1.0975853,0,,-0.072735465,0.025258701,-0.35043418,9.8411264,0.22362299,0.81696898,0.73401201,-0.026465001,-0.67820799,-0.023646001,-0.085943779,-1.4917557,0.015005398
2835879584640,1.0995764,0,,-0.078604639,0.028354741,-0.29375456,9.9422846,-0.041499,0.86956102,0.73403597,-0.026040001,-0.67817301,-0.024381001,-0.06538333,-1.4917399,-0.0059945254
2835881581856,1.1015736,0,,-0.078604639,0.028354741,-0.29375456,9.9422846,-0.041499,0.86956102,0.73403597,-0.026040001,-0.67817301,-0.024381001,-0.06538333,-1.4917399,-0.0059945254
2835883610624,1.1036023,0,,-0.083694281,0.026548745,-0.24496769,9.9912567,0.36652601,1.0894001,0.734065,-0.025731999,-0.67812902,-0.025012,-0.048791849,-1.4916652,-0.02304524
2835885611968,1.1056037,0,,-0.083694281,0.026548745,-0.24496769,9.9912567,0.36652601,1.0894001,0.734065,-0.025731999,-0.67812902,-0.025012,-0.048791849,-1.4916652,-0.02304524
2835887646272,1.107638,0,,-0.083694281,0.026548745,-0.24496769,9.9912567,0.36652601,1.0894001,0.734065,-0.025731999,-0.67812902,-0.025012,-0.048791849,-1.4916652,-0.02304524
2835889665248,1.109657,0,,-0.076043336,0.021213901,-0.21235764,9.6616383,0.65951002,1.005512,0.73409498,-0.025467999,-0.67808497,-0.025584999,-0.034034864,-1.4915657,-0.038238645
2835891614528,1.1116062,0,,-0.076043336,0.021213901,-0.21235764,9.6616383,0.65951002,1.005512,0.73409498,-0.025467999,-0.67808497,-0.025584999,-0.034034864,-1.4915657,-0.038238645
2835893765792,1.1137575,0,,-0.058808119,0.021905278,-0.17390993,9.6878681,0.74240899,0.76766402,0.73412502,-0.02523,-0.67804402,-0.026078999,-0.021178208,-1.4914565,-0.051456999
2835895598880,1.1155906,0,,-0.058808119,0.021905278,-0.17390993,9.6878681,0.74240899,0.76766402,0.73412502,-0.02523,-0.67804402,-0.026078999,-0.021178208,-1.4914565,-0.051456999
2835897605184,1.1175969,0,,-0.058808119,0.021905278,-0.17390993,9.6878681,0.74240899,0.76766402,0.73412502,-0.02523,-0.67804402,-0.026078999,-0.021178208,-1.4914565,-0.051456999
2835899630912,1.1196226,0,,-0.051258889,0.034239085,-0.13608076,9.2175303,0.354718,0.65469801,0.73415703,-0.025029,-0.67799997,-0.026497999,-0.010313552,-1.4913341,-0.062631403
2835901598016,1.1215897,0,,-0.051258889,0.034239085,-0.13608076,9.2175303,0.354718,0.65469801,0.73415703,-0.025029,-0.67799997,-0.026497999,-0.010313552,-1.4913341,-0.062631403
2835903597056,1.1235888,0,,-0.03666073,0.036167255,-0.088733498,9.3890676,0.66522801,0.941109,0.73420501,-0.024907,-0.67794102,-0.026800999,-0.0029583155,-1.4911616,-0.07024397
2835905631584,1.1256233,0,,-0.03666073,0.036167255,-0.088733498,9.3890676,0.66522801,0.941109,0.73420501,-0.024907,-0.67794102,-0.026800999,-0.0029583155,-1.4911616,-0.07024397
2835907609440,1.1276012,0,,-0.03666073,0.036167255,-0.088733498,9.3890676,0.66522801,0.941109,0.73420501,-0.024907,-0.67794102,-0.026800999,-0.0029583155,-1.4911616,-0.07024397
2835909600320,1.129592,0,,-0.028527757,0.035122168,-0.050184707,9.2350397,0.73156202,0.96380901,0.734263,-0.024815001,-0.677872,-0.027011,0.0022375994,-1.4909655,-0.075606336
2835911606880,1.1315986,0,,-0.028527757,0.035122168,-0.050184707,9.2350397,0.73156202,0.96380901,0.734263,-0.024815001,-0.677872,-0.027011,0.0022375994,-1.4909655,-0.075606336
2835913778176,1.1337699,0,,-0.01910722,0.036877915,-0.0085345725,9.3789978,0.63299102,0.94942397,0.73433101,-0.024772,-0.67779601,-0.027139001,0.0051021558,-1.4907528,-0.07859174
2835915592704,1.1355844,0,,-0.01910722,0.036877915,-0.0085345725,9.3789978,0.63299102,0.94942397,0.73433101,-0.024772,-0.67779601,-0.027139001,0.0051021558,-1.4907528,-0.07859174
2835917589888,1.1375816,0,,-0.01910722,0.036877915,-0.0085345725,9.3789978,0.63299102,0.94942397,0.73433101,-0.024772,-0.67779601,-0.027139001,0.0051021558,-1.4907528,-0.07859174
2835919587904,1.1395796,0,,-0.0097572105,0.032823342,0.028273758,9.5530338,0.563021,0.88599998,0.73439598,-0.024785001,-0.67772299,-0.027172999,0.0053293104,-1.4905548,-0.078886577
2835921583968,1.1415757,0,,-0.0097572105,0.032823342,0.028273758,9.5530338,0.563021,0.88599998,0.73439598,-0.024785001,-0.67772299,-0.027172999,0.0053293104,-1.4905548,-0.078886577
2835923590400,1.1435821,0,,-0.0096654064,0.030024043,0.045457064,9.662529,0.18476699,0.71618402,0.73445499,-0.024837,-0.67765802,-0.027145,0.0038038577,-1.490386,-0.077394757
2835925582880,1.1455746,0,,-0.0096654064,0.030024043,0.045457064,9.662529,0.18476699,0.71618402,0.73445499,-0.024837,-0.67765802,-0.027145,0.0038038577,-1.490386,-0.077394757
2835927569856,1.1475616,0,,-0.0096654064,0.030024043,0.045457064,9.662529,0.18476699,0.71618402,0.73445499,-0.024837,-0.67765802,-0.027145,0.0038038577,-1.490386,-0.077394757
2835929593728,1.1495854,0,,-0.0075827749,0.041261678,0.046736759,9.6987629,0.190466,0.80268097,0.734514,-0.024925999,-0.67759299,-0.027092,0.0012131783,-1.4902185,-0.074855583
2835931581248,1.151573,0,,-0.0075827749,0.041261678,0.046736759,9.6987629,0.190466,0.80268097,0.734514,-0.024925999,-0.67759299,-0.027092,0.0012131783,-1.4902185,-0.074855583
2835933787232,1.1537789,0,,-0.0062155537,0.038572455,0.06175092,9.7036419,0.026758,0.76659203,0.73458701,-0.025017999,-0.67751402,-0.027016001,-0.0018382854,-1.4900137,-0.071826736
2835935607840,1.1555996,0,,-0.0062155537,0.038572455,0.06175092,9.7036419,0.026758,0.76659203,0.73458701,-0.025017999,-0.67751402,-0.027016001,-0.0018382854,-1.4900137,-0.071826736
2835937597312,1.157589,0,,-0.0062155537,0.038572455,0.06175092,9.7036419,0.026758,0.76659203,0.73458701,-0.025017999,-0.67751402,-0.027016001,-0.0018382854,-1.4900137,-0.071826736
2835939582880,1.1595746,0,,-0.0079044567,0.038048945,0.077692565,9.7903614,0.17995399,0.79620701,0.73465598,-0.025146,-0.67743897,-0.026903,-0.006143367,-1.4898183,-0.067544348
2835941582848,1.1615746,0,,-0.0079044567,0.038048945,0.077692565,9.7903614,0.17995399,0.79620701,0.73465598,-0.025146,-0.67743897,-0.026903,-0.006143367,-1.4898183,-0.067544348
2835943679904,1.1636716,0,,0.005838615,0.044769648,0.079064792,10.160093,0.55752999,0.88248098,0.73473102,-0.025273999,-0.67735797,-0.026779,-0.010625023,-1.4896105,-0.063066842
2835945607168,1.1655989,0,,0.005838615,0.044769648,0.079064792,10.160093,0.55752999,0.88248098,0.73473102,-0.025273999,-0.67735797,-0.026779,-0.010625023,-1.4896105,-0.063066842
2835947611392,1.1676031,0,,0.005838615,0.044769648,0.079064792,10.160093,0.55752999,0.88248098,0.73473102,-0.025273999,-0.67735797,-0.026779,-0.010625023,-1.4896105,-0.063066842
2835949618720,1.1696104,0,,0.01167922,0.041625474,0.079174298,10.187613,0.205916,0.71218199,0.73480999,-0.025363,-0.67727298,-0.026644999,-0.014532065,-1.489386,-0.059097808
2835951606464,1.1715982,0,,0.01167922,0.041625474,0.079174298,10.187613,0.205916,0.71218199,0.73480999,-0.025363,-0.67727298,-0.026644999,-0.014532065,-1.489386,-0.059097808
2835953806592,1.1737983,0,,0.0081861525,0.033083414,0.072299514,10.274411,-0.060314,0.83699602,0.73487598,-0.025466001,-0.67720401,-0.026502,-0.018831021,-1.4892001,-0.054742408
2835955603328,1.175595,0,,0.0081861525,0.033083414,0.072299514,10.274411,-0.060314,0.83699602,0.73487598,-0.025466001,-0.67720401,-0.026502,-0.018831021,-1.4892001,-0.054742408
2835957599840,1.1775916,0,,0.0081861525,0.033083414,0.072299514,10.274411,-0.060314,0.83699602,0.73487598,-0.025466001,-0.67720401,-0.026502,-0.018831021,-1.4892001,-0.054742408
2835959658048,1.1796498,0,,0.00088835512,0.024024318,0.058175106,10.199506,-0.17531499,0.87014502,0.73492801,-0.025566,-0.677149,-0.026374999,-0.022765446,-1.4890547,-0.050769113
2835961654816,1.1816465,0,,0.00088835512,0.024024318,0.058175106,10.199506,-0.17531499,0.87014502,0.73492801,-0.025566,-0.677149,-0.026374999,-0.022765446,-1.4890547,-0.050769113
2835963640800,1.1836325,0,,-0.0056436441,0.014520651,0.058316233,10.026446,-0.028004,0.81170899,0.73496699,-0.025674,-0.67710602,-0.02627,-0.026470134,-1.4889402,-0.047068389
2835965605312,1.185597,0,,-0.0056436441,0.014520651,0.058316233,10.026446,-0.028004,0.81170899,0.73496699,-0.025674,-0.67710602,-0.02627,-0.026470134,-1.4889402,-0.047068389
2835967599296,1.187591,0,,-0.0056436441,0.014520651,0.058316233,10.026446,-0.028004,0.81170899,0.73496699,-0.025674,-0.67710602,-0.02627,-0.026470134,-1.4889402,-0.047068389
2835969602976,1.1895947,0,,-0.0018891094,0.018281923,0.059864532,9.7624416,0.37081799,0.71582502,0.73499602,-0.025781,-0.67707402,-0.026171001,-0.030034935,-1.4888571,-0.04351537
2835971606272,1.191598,0,,-0.0018891094,0.018281923,0.059864532,9.7624416,0.37081799,0.71582502,0.73499602,-0.025781,-0.67707402,-0.026171001,-0.030034935,-1.4888571,-0.04351537
2835973788576,1.1937803,0,,0.011336908,0.022127983,0.069376158,9.6441774,0.85970098,0.79805303,0.73503202,-0.025865,-0.67703599,-0.026071001,-0.03321311,-1.488753,-0.04031599
2835975584544,1.1955763,0,,0.011336908,0.022127983,0.069376158,9.6441774,0.85970098,0.79805303,0.73503202,-0.025865,-0.67703599,-0.026071001,-0.03321311,-1.488753,-0.04031599
2835977597888,1.1975896,0,,0.011336908,0.022127983,0.069376158,9.6441774,0.85970098,0.79805303,0.73503202,-0.025865,-0.67703599,-0.026071001,-0.03321311,-1.488753,-0.04031599
2835979596832,1.1995885,0,,0.021221457,0.020303222,0.093674003,9.4972534,0.26824701,0.66388899,0.735075,-0.025931001,-0.676992,-0.025932999,-0.036683471,-1.4886325,-0.036743738
2835981596960,1.2015887,0,,0.021221457,0.020303222,0.093674003,9.4972534,0.26824701,0.66388899,0.735075,-0.025931001,-0.676992,-0.025932999,-0.036683471,-1.4886325,-0.036743738
2835983595200,1.2035869,0,,0.011221053,0.027144634,0.097790676,9.4652624,-0.47166601,0.74075699,0.735116,-0.026054,-0.67694998,-0.025744,-0.041993057,-1.4885128,-0.03133983
2835985590528,1.2055822,0,,0.011221053,0.027144634,0.097790676,9.4652624,-0.47166601,0.74075699,0.735116,-0.026054,-0.67694998,-0.025744,-0.041993057,-1.4885128,-0.03133983
2835987582528,1.2075742,0,,0.011221053,0.027144634,0.097790676,9.4652624,-0.47166601,0.74075699,0.735116,-0.026054,-0.67694998,-0.025744,-0.041993057,-1.4885128,-0.03133983
2835989589824,1.2095815,0,,0.0037335212,0.026348084,0.09178578,9.6885805,-0.56217998,0.88849902,0.73516899,-0.026218001,-0.67689401,-0.025543001,-0.048211263,-1.488357,-0.025069421
2835991602176,1.2115939,0,,0.0037335212,0.026348084,0.09178578,9.6885805,-0.56217998,0.88849902,0.73516899,-0.026218001,-0.67689401,-0.025543001,-0.048211263,-1.488357,-0.025069421
2835993786592,1.2137783,0,,0.00054492671,0.019491191,0.08008698,10.038221,-0.37217301,0.92403799,0.73521799,-0.026379,-0.67684102,-0.025359999,-0.054087387,-1.4882021,-0.019162894
2835995582016,1.2155737,0,,0.00054492671,0.019491191,0.08008698,10.038221,-0.37217301,0.92403799,0.73521799,-0.026379,-0.67684102,-0.025359999,-0.054087387,-1.4882021,-0.019162894
2835997623200,1.2176149,0,,0.00054492671,0.019491191,0.08008698,10.038221,-0.37217301,0.92403799,0.73521799,-0.026379,-0.67684102,-0.025359999,-0.054087387,-1.4882021,-0.019162894
2835999604224,1.2195959,0,,-6.997025e-05,0.011797849,0.053164248,10.329218,-0.22849999,0.91484398,0.73525298,-0.026504999,-0.67680299,-0.025223,-0.058537733,-1.4880945,-0.014697278
2836001625184,1.2216169,0,,-6.997025e-05,0.011797849,0.053164248,10.329218,-0.22849999,0.91484398,0.73525298,-0.026504999,-0.67680299,-0.025223,-0.058537733,-1.4880945,-0.014697278
2836003602688,1.2235944,0,,0.0039228545,0.010942132,0.036060054,10.304669,-0.31228599,0.901959,0.73527801,-0.02658,-0.67677701,-0.025134999,-0.061303817,-1.4880153,-0.011913704
2836005634656,1.2256264,0,,0.0039228545,0.010942132,0.036060054,10.304669,-0.31228599,0.901959,0.73527801,-0.02658,-0.67677701,-0.025134999,-0.061303817,-1.4880153,-0.011913704
2836007602080,1.2275938,0,,0.0039228545,0.010942132,0.036060054,10.304669,-0.31228599,0.901959,0.73527801,-0.02658,-0.67677701,-0.025134999,-0.061303817,-1.4880153,-0.011913704
2836009604608,1.2295963,0,,0.0099600352,0.0035548517,0.033021716,10.260346,-0.25249699,1.0480419,0.73529601,-0.026632,-0.67675799,-0.025053,-0.063558886,-1.4879583,-0.0096141811
2836011597504,1.2315892,0,,0.0099600352,0.0035548517,0.033021716,10.260346,-0.25249699,1.0480419,0.73529601,-0.026632,-0.67675799,-0.025053,-0.063558886,-1.4879583,-0.0096141811
2836013791904,1.2337836,0,,0.0099600352,0.0035548517,0.033021716,10.260346,-0.25249699,1.0480419,0.73529601,-0.026632,-0.67675799,-0.025053,-0.063558886,-1.4879583,-0.0096141811
2836015595776,1.2355875,0,,0.0031994328,-0.0038734965,0.031406066,10.319374,-0.012071,1.019399,0.73530698,-0.02668,-0.67674702,-0.024970001,-0.065752611,-1.4879238,-0.0073709969
2836017589792,1.2375815,0,,0.0031994328,-0.0038734965,0.031406066,10.319374,-0.012071,1.019399,0.73530698,-0.02668,-0.67674702,-0.024970001,-0.065752611,-1.4879238,-0.0073709969
2836019602336,1.239594,0,,0.01098697,-0.0037059798,0.018765867,10.196925,-0.396548,0.94388598,0.73530799,-0.026706999,-0.67674702,-0.024914,-0.067159172,-1.4879165,-0.0059248343
2836021593408,1.2415851,0,,0.01098697,-0.0037059798,0.018765867,10.196925,-0.396548,0.94388598,0.73530799,-0.026706999,-0.67674702,-0.024914,-0.067159172,-1.4879165,-0.0059248343
2836023584224,1.2435759,0,,0.01098697,-0.0037059798,0.018765867,10.196925,-0.396548,0.94388598,0.73530799,-0.026706999,-0.67674702,-0.024914,-0.067159172,-1.4879165,-0.0059248343
2836025588960,1.2455807,0,,0.0091767319,-0.017325849,0.010558055,10.408381,-0.25470001,1.026356,0.73529899,-0.026725,-0.676759,-0.024854999,-0.068442666,-1.4879438,-0.0045834438
2836027586656,1.2475784,0,,0.0091767319,-0.017325849,0.010558055,10.408381,-0.25470001,1.026356,0.73529899,-0.026725,-0.676759,-0.024854999,-0.068442666,-1.4879438,-0.0045834438
2836029583232,1.2495749,0,,0.010786362,-0.026769773,-0.018555032,10.533368,-0.074442998,1.0874569,0.73526698,-0.026706999,-0.67679501,-0.024834,-0.068513439,-1.488039,-0.00445703
2836031576672,1.2515684,0,,0.010786362,-0.026769773,-0.018555032,10.533368,-0.074442998,1.0874569,0.73526698,-0.026706999,-0.67679501,-0.024834,-0.068513439,-1.488039,-0.00445703
2836033905952,1.2538977,0,,0.012233501,-0.028083221,-0.035106251,10.325571,-0.31383198,0.94057697,0.73522902,-0.026634,-0.67683798,-0.02486,-0.066816386,-1.488158,-0.0060871675
2836035586240,1.255578,0,,0.012233501,-0.028083221,-0.035106251,10.325571,-0.31383198,0.94057697,0.73522902,-0.026634,-0.67683798,-0.02486,-0.066816386,-1.488158,-0.0060871675
2836037580576,1.2575723,0,,0.012233501,-0.028083221,-0.035106251,10.325571,-0.31383198,0.94057697,0.73522902,-0.026634,-0.67683798,-0.02486,-0.066816386,-1.488158,-0.0060871675
2836039593888,1.2595856,0,,0.011666916,-0.021474112,-0.031227257,9.6796236,-0.55346197,0.71983498,0.73518801,-0.026564,-0.676884,-0.024893001,-0.065077516,-1.4882852,-0.0077726666
2836041600640,1.2615924,0,,0.011666916,-0.021474112,-0.031227257,9.6796236,-0.55346197,0.71983498,0.73518801,-0.026564,-0.676884,-0.024893001,-0.065077516,-1.4882852,-0.0077726666
2836043651744,1.2636435,0,,0.011666916,-0.021474112,-0.031227257,9.6796236,-0.55346197,0.71983498,0.73518801,-0.026564,-0.676884,-0.024893001,-0.065077516,-1.4882852,-0.0077726666
2836045589184,1.2655809,0,,0.0028138895,-0.01719268,-0.016546297,9.4150705,-0.249038,0.71196002,0.73515201,-0.026533,-0.67692298,-0.024905,-0.064364392,-1.4883931,-0.008459733
2836047567264,1.267559,0,,0.0028138895,-0.01719268,-0.016546297,9.4150705,-0.249038,0.71196002,0.73515201,-0.026533,-0.67692298,-0.024905,-0.064364392,-1.4883931,-0.008459733
2836049580320,1.269572,0,,0.0035367177,-0.013542079,-0.016053049,9.1986752,0.183358,0.74030501,0.73512501,-0.026512001,-0.67695397,-0.024922,-0.063725513,-1.4884756,-0.009092886
2836051573568,1.2715653,0,,0.0035367177,-0.013542079,-0.016053049,9.1986752,0.183358,0.74030501,0.73512501,-0.026512001,-0.67695397,-0.024922,-0.063725513,-1.4884756,-0.009092886
2836053774304,1.273766,0,,0.0085678038,-0.015851813,-0.017371821,8.9967985,0.29748201,0.64279801,0.73509902,-0.026462,-0.676983,-0.024955001,-0.062315498,-1.4885596,-0.010478085
2836055606880,1.2755986,0,,0.0085678038,-0.015851813,-0.017371821,8.9967985,0.29748201,0.64279801,0.73509902,-0.026462,-0.676983,-0.024955001,-0.062315498,-1.4885596,-0.010478085
2836057593280,1.277585,0,,0.0085678038,-0.015851813,-0.017371821,8.9967985,0.29748201,0.64279801,0.73509902,-0.026462,-0.676983,-0.024955001,-0.062315498,-1.4885596,-0.010478085
2836059600736,1.2795924,0,,0.010505206,-0.017465266,-0.012580857,9.3823557,-0.046441998,0.708287,0.73506701,-0.026404999,-0.67701799,-0.024984,-0.06085403,-1.4886576,-0.011900161
2836061611232,1.2816029,0,,0.010505206,-0.017465266,-0.012580857,9.3823557,-0.046441998,0.708287,0.73506701,-0.026404999,-0.67701799,-0.024984,-0.06085403,-1.4886576,-0.011900161
2836063604096,1.2835958,0,,0.0031392017,-0.011882743,-0.001237229,9.4301186,0.059351001,0.844859,0.73504001,-0.026385,-0.67704803,-0.024991,-0.060389666,-1.4887363,-0.012345901
2836065596800,1.2855885,0,,0.0031392017,-0.011882743,-0.001237229,9.4301186,0.059351001,0.844859,0.73504001,-0.026385,-0.67704803,-0.024991,-0.060389666,-1.4887363,-0.012345901
2836067593600,1.2875853,0,,0.0031392017,-0.011882743,-0.001237229,9.4301186,0.059351001,0.844859,0.73504001,-0.026385,-0.67704803,-0.024991,-0.060389666,-1.4887363,-0.012345901
2836069592960,1.2895847,0,,0.0020857732,-0.017844247,0.0018883241,10.050125,0.15232199,0.864609,0.73501897,-0.026373999,-0.67707199,-0.024987999,-0.060273182,-1.4888019,-0.012442539
2836071666144,1.2916579,0,,0.0020857732,-0.017844247,0.0018883241,10.050125,0.15232199,0.864609,0.73501897,-0.026373999,-0.67707199,-0.024987999,-0.060273182,-1.4888019,-0.012442539
2836073808576,1.2938003,0,,0.00056192621,-0.013793023,-0.00035407494,10.008721,-0.065856002,0.61236697,0.73499203,-0.026365001,-0.67710102,-0.024995999,-0.060003828,-1.4888796,-0.012710692
2836075625248,1.295617,0,,0.00056192621,-0.013793023,-0.00035407494,10.008721,-0.065856002,0.61236697,0.73499203,-0.026365001,-0.67710102,-0.024995999,-0.060003828,-1.4888796,-0.012710692
2836077619552,1.2976113,0,,0.00056192621,-0.013793023,-0.00035407494,10.008721,-0.065856002,0.61236697,0.73499203,-0.026365001,-0.67710102,-0.024995999,-0.060003828,-1.4888796,-0.012710692
2836079620128,1.2996118,0,,0.0031282757,-0.013318398,-0.0076152727,10.275597,-0.18885601,0.68665397,0.73496002,-0.02636,-0.677136,-0.025001001,-0.059863084,-1.4889766,-0.012850825
2836081588064,1.3015798,0,,0.0031282757,-0.013318398,-0.0076152727,10.275597,-0.18885601,0.68665397,0.73496002,-0.02636,-0.677136,-0.025001001,-0.059863084,-1.4889766,-0.012850825
2836083592064,1.3035838,0,,0.011172917,-0.017716873,-0.02654082,10.413779,-0.095404997,0.88865,0.73492801,-0.02633,-0.67717099,-0.025017999,-0.059056234,-1.4890707,-0.013639644
2836085580512,1.3055722,0,,0.011172917,-0.017716873,-0.02654082,10.413779,-0.095404997,0.88865,0.73492801,-0.02633,-0.67717099,-0.025017999,-0.059056234,-1.4890707,-0.013639644
2836087580032,1.3075717,0,,0.011172917,-0.017716873,-0.02654082,10.413779,-0.095404997,0.88865,0.73492801,-0.02633,-0.67717099,-0.025017999,-0.059056234,-1.4890707,-0.013639644
2836089590112,1.3095818,0,,0.012876097,-0.019356086,-0.035200165,10.444015,-0.33495101,0.75947201,0.73489797,-0.026254,-0.67720503,-0.025056001,-0.057075146,-1.4891687,-0.015566435
2836091609184,1.3116009,0,,0.012876097,-0.019356086,-0.035200165,10.444015,-0.33495101,0.75947201,0.73489797,-0.026254,-0.67720503,-0.025056001,-0.057075146,-1.4891687,-0.015566435
2836093774112,1.3137658,0,,0.012876097,-0.019356086,-0.035200165,10.444015,-0.33495101,0.75947201,0.73489797,-0.026254,-0.67720503,-0.025056001,-0.057075146,-1.4891687,-0.015566435
2836095583392,1.3155751,0,,0.0068615352,-0.018222582,-0.038857747,10.144342,0.038282,0.85815698,0.73486102,-0.026191,-0.67724699,-0.025095999,-0.055309553,-1.4892815,-0.017298901
2836097618272,1.31761,0,,0.0068615352,-0.018222582,-0.038857747,10.144342,0.038282,0.85815698,0.73486102,-0.026191,-0.67724699,-0.025095999,-0.055309553,-1.4892815,-0.017298901
2836099578368,1.3195701,0,,0.0075631049,-0.026712055,-0.049864425,10.185011,0.182981,0.99545699,0.73482198,-0.0261,-0.67728901,-0.025172001,-0.052415937,-1.4893985,-0.020170281
2836101580992,1.3215727,0,,0.0075631049,-0.026712055,-0.049864425,10.185011,0.182981,0.99545699,0.73482198,-0.0261,-0.67728901,-0.025172001,-0.052415937,-1.4893985,-0.020170281
2836103585568,1.3235773,0,,0.0062194112,-0.030509176,-0.048724654,10.008392,-0.1358,0.81669998,0.73477697,-0.02599,-0.67733902,-0.025257001,-0.049022196,-1.4895393,-0.023528957
2836105643776,1.3256355,0,,0.0062194112,-0.030509176,-0.048724654,10.008392,-0.1358,0.81669998,0.73477697,-0.02599,-0.67733902,-0.025257001,-0.049022196,-1.4895393,-0.023528957
2836107582912,1.3275746,0,,0.0062194112,-0.030509176,-0.048724654,10.008392,-0.1358,0.81669998,0.73477697,-0.02599,-0.67733902,-0.025257001,-0.049022196,-1.4895393,-0.023528957
2836109577760,1.3295695,0,,0.0026086388,-0.036523353,-0.050897536,9.9065628,-0.27744299,0.88525099,0.73471802,-0.025903,-0.67740297,-0.025336999,-0.046149228,-1.4897173,-0.026392066
2836111588800,1.3315805,0,,0.0026086388,-0.036523353,-0.050897536,9.9065628,-0.27744299,0.88525099,0.73471802,-0.025903,-0.67740297,-0.025336999,-0.046149228,-1.4897173,-0.026392066
2836113759392,1.3337511,0,,0.0015661538,-0.038711439,-0.052544863,9.5522127,-0.53713602,0.92650801,0.73465401,-0.025823001,-0.67747301,-0.025417,-0.043374888,-1.4899089,-0.029165307
2836115606976,1.3355987,0,,0.0015661538,-0.038711439,-0.052544863,9.5522127,-0.53713602,0.92650801,0.73465401,-0.025823001,-0.67747301,-0.025417,-0.043374888,-1.4899089,-0.029165307
2836117606688,1.3375984,0,,0.0015661538,-0.038711439,-0.052544863,9.5522127,-0.53713602,0.92650801,0.73465401,-0.025823001,-0.67747301,-0.025417,-0.043374888,-1.4899089,-0.029165307
2836119595776,1.3395875,0,,-0.0071163883,-0.033096416,-0.056881259,9.3073463,-0.47839001,0.72169203,0.73459601,-0.025757,-0.677535,-0.025497999,-0.040808695,-1.4900795,-0.031753648
2836121614592,1.3416063,0,,-0.0071163883,-0.033096416,-0.056881259,9.3073463,-0.47839001,0.72169203,0.73459601,-0.025757,-0.677535,-0.025497999,-0.040808695,-1.4900795,-0.031753648
2836123614752,1.3436065,0,,0.0058328731,-0.032920347,-0.056103208,9.5284185,0.43236601,0.97794902,0.73453897,-0.025686,-0.67759699,-0.025587,-0.038023778,-1.4902482,-0.034563016
