t_recv_ns,t_s,t_stamp_ns,frame_id,angular_velocity.x,angular_velocity.y,angular_velocity.z,linear_acceleration.x,linear_acceleration.y,linear_acceleration.z,quaternion.w,quaternion.x,quaternion.y,quaternion.z,rpy.x,rpy.y,rpy.z
21331692276192,0,0,,0.0042705762,-0.00018243926,0.0032786358,9.715971,-0.314861,1.377062,0.74853802,-0.11741,-0.644041,-0.105435,-0.2727822,-1.4219122,-0.044575553
21331692347424,7.1232e-05,0,,0.0042705762,-0.00018243926,0.0032786358,9.715971,-0.314861,1.377062,0.74853802,-0.11741,-0.644041,-0.105435,-0.2727822,-1.4219122,-0.044575553
21331693613568,0.001337376,0,,0.0028843834,0.0034528721,0.0032186837,9.7416401,-0.36584401,1.364208,0.74853998,-0.117402,-0.644041,-0.105425,-0.2727778,-1.4219094,-0.044553562
21331701244288,0.008968096,0,,0.0028843834,0.0034528721,0.0032186837,9.7416401,-0.36584401,1.364208,0.74853998,-0.117402,-0.644041,-0.105425,-0.2727778,-1.4219094,-0.044553562
21331701342304,0.009066112,0,,-0.0039639569,0.00049007099,-0.0018845367,9.6865454,-0.30762801,1.356856,0.748541,-0.117402,-0.64403999,-0.105428,-0.27275402,-1.4219066,-0.04458234
21331701388480,0.009112288,0,,-0.0039639569,0.00049007099,-0.0018845367,9.6865454,-0.30762801,1.356856,0.748541,-0.117402,-0.64403999,-0.105428,-0.27275402,-1.4219066,-0.04458234
21331701638624,0.009362432,0,,-0.0039639569,0.00049007099,-0.0018845367,9.6865454,-0.30762801,1.356856,0.748541,-0.117402,-0.64403999,-0.105428,-0.27275402,-1.4219066,-0.04458234
21331703598112,0.01132192,0,,-0.0041895058,0.0023736128,-0.00049761084,9.6608543,-0.42309698,1.355685,0.74853897,-0.117401,-0.64403999,-0.105439,-0.27264912,-1.4219098,-0.044701442
21331705766528,0.013490336,0,,-0.0041895058,0.0023736128,-0.00049761084,9.6608543,-0.42309698,1.355685,0.74853897,-0.117401,-0.64403999,-0.105439,-0.27264912,-1.4219098,-0.044701442
21331707594304,0.015318112,0,,-0.0069768839,-0.0027482478,-4.0631266e-05,9.6803007,-0.3978,1.368461,0.74853402,-0.117416,-0.644041,-0.105453,-0.27269153,-1.4219174,-0.044700447
21331709620192,0.017344,0,,-0.0069768839,-0.0027482478,-4.0631266e-05,9.6803007,-0.3978,1.368461,0.74853402,-0.117416,-0.644041,-0.105453,-0.27269153,-1.4219174,-0.044700447
21331711647040,0.019370848,0,,-0.0069768839,-0.0027482478,-4.0631266e-05,9.6803007,-0.3978,1.368461,0.74853402,-0.117416,-0.644041,-0.105453,-0.27269153,-1.4219174,-0.044700447
21331713643936,0.021367744,0,,-0.0011747985,-0.0009676629,-0.0017023069,9.7326984,-0.44558799,1.3657629,0.74852699,-0.117425,-0.64404601,-0.105462,-0.27271272,-1.4219343,-0.044704043
21331715632608,0.023356416,0,,-0.0011747985,-0.0009676629,-0.0017023069,9.7326984,-0.44558799,1.3657629,0.74852699,-0.117425,-0.64404601,-0.105462,-0.27271272,-1.4219343,-0.044704043
21331717611328,0.025335136,0,,0.00087140796,-0.0025849547,0.004527157,9.7178679,-0.450555,1.361678,0.74852002,-0.117434,-0.64405197,-0.105464,-0.27280245,-1.421952,-0.044631105
21331719589280,0.027313088,0,,0.00087140796,-0.0025849547,0.004527157,9.7178679,-0.450555,1.361678,0.74852002,-0.117434,-0.64405197,-0.105464,-0.27280245,-1.421952,-0.044631105
21331721670688,0.029394496,0,,0.00087140796,-0.0025849547,0.004527157,9.7178679,-0.450555,1.361678,0.74852002,-0.117434,-0.64405197,-0.105464,-0.27280245,-1.421952,-0.044631105
21331723613888,0.031337696,0,,6.7823495e-05,0.0012109967,-4.1887901e-06,9.7373762,-0.501737,1.3538899,0.74851698,-0.117445,-0.644054,-0.105462,-0.27292965,-1.4219588,-0.044515549
21331725773024,0.033496832,0,,6.7823495e-05,0.0012109967,-4.1887901e-06,9.7373762,-0.501737,1.3538899,0.74851698,-0.117445,-0.644054,-0.105462,-0.27292965,-1.4219588,-0.044515549
21331727574432,0.03529824,0,,0.0011255105,-0.00016278686,0.00025520204,9.7724543,-0.465783,1.369984,0.74851602,-0.117455,-0.64405197,-0.105468,-0.27297396,-1.4219576,-0.044494639
21331729649856,0.037373664,0,,0.0011255105,-0.00016278686,0.00025520204,9.7724543,-0.465783,1.369984,0.74851602,-0.117455,-0.64405197,-0.105468,-0.27297396,-1.4219576,-0.044494639
21331731574176,0.039297984,0,,0.0011255105,-0.00016278686,0.00025520204,9.7724543,-0.465783,1.369984,0.74851602,-0.117455,-0.64405197,-0.105468,-0.27297396,-1.4219576,-0.044494639
21331733636672,0.04136048,0,,0.0054146746,0.00024581217,0.0020428206,9.7518883,-0.49114701,1.356086,0.74851298,-0.117459,-0.64405602,-0.105465,-0.27306274,-1.421964,-0.044407321
21331735603648,0.043327456,0,,0.0054146746,0.00024581217,0.0020428206,9.7518883,-0.49114701,1.356086,0.74851298,-0.117459,-0.64405602,-0.105465,-0.27306274,-1.421964,-0.044407321
21331737621184,0.045344992,0,,0.0011107275,0.0044590367,0.00079255401,9.7052345,-0.46949399,1.368948,0.74851501,-0.117465,-0.64405197,-0.105461,-0.27314575,-1.4219556,-0.044327888
21331739569248,0.047293056,0,,0.0011107275,0.0044590367,0.00079255401,9.7052345,-0.46949399,1.368948,0.74851501,-0.117465,-0.64405197,-0.105461,-0.27314575,-1.4219556,-0.044327888
21331741594368,0.049318176,0,,0.0011107275,0.0044590367,0.00079255401,9.7052345,-0.46949399,1.368948,0.74851501,-0.117465,-0.64405197,-0.105461,-0.27314575,-1.4219556,-0.044327888
21331743596800,0.051320608,0,,-0.0043483306,0.0024605127,-0.0016753764,9.7067986,-0.475878,1.3757269,0.74851799,-0.117475,-0.64404601,-0.10547,-0.27316404,-1.4219411,-0.044337071
21331745699520,0.053423328,0,,-0.0043483306,0.0024605127,-0.0016753764,9.7067986,-0.475878,1.3757269,0.74851799,-0.117475,-0.64404601,-0.10547,-0.27316404,-1.4219411,-0.044337071
21331747632800,0.055356608,0,,-0.004368908,-0.00096781998,-0.00026453956,9.7175522,-0.45712098,1.380497,0.74851602,-0.117488,-0.64404398,-0.105483,-0.27318081,-1.421942,-0.044356163
21331749614016,0.057337824,0,,-0.004368908,-0.00096781998,-0.00026453956,9.7175522,-0.45712098,1.380497,0.74851602,-0.117488,-0.64404398,-0.105483,-0.27318081,-1.421942,-0.044356163
21331751594816,0.059318624,0,,-0.004368908,-0.00096781998,-0.00026453956,9.7175522,-0.45712098,1.380497,0.74851602,-0.117488,-0.64404398,-0.105483,-0.27318081,-1.421942,-0.044356163
21331753604960,0.061328768,0,,0.00066406286,-0.0012041026,-0.00010517354,9.6847591,-0.441847,1.379354,0.74850899,-0.117502,-0.64404798,-0.105492,-0.27325148,-1.4219552,-0.044319582
21331755596672,0.06332048,0,,0.00066406286,-0.0012041026,-0.00010517354,9.6847591,-0.441847,1.379354,0.74850899,-0.117502,-0.64404798,-0.105492,-0.27325148,-1.4219552,-0.044319582
21331757587264,0.065311072,0,,0.0032122435,0.0015874817,0.0015138462,9.6645966,-0.39290899,1.3810279,0.74850899,-0.117504,-0.64404798,-0.105491,-0.27328081,-1.4219547,-0.044290433
21331759586272,0.06731008,0,,0.0032122435,0.0015874817,0.0015138462,9.6645966,-0.39290899,1.3810279,0.74850899,-0.117504,-0.64404798,-0.105491,-0.27328081,-1.4219547,-0.044290433
21331761580256,0.069304064,0,,0.0032122435,0.0015874817,0.0015138462,9.6645966,-0.39290899,1.3810279,0.74850899,-0.117504,-0.64404798,-0.105491,-0.27328081,-1.4219547,-0.044290433
21331763626048,0.071349856,0,,0.0056650945,-0.00031820841,-0.0016951161,9.7329464,-0.44870201,1.391905,0.74851,-0.117497,-0.64404798,-0.105484,-0.27327202,-1.4219535,-0.044278898
21331765700512,0.07342432,0,,0.0056650945,-0.00031820841,-0.0016951161,9.7329464,-0.44870201,1.391905,0.74851,-0.117497,-0.64404798,-0.105484,-0.27327202,-1.4219535,-0.044278898
21331767591200,0.075315008,0,,-0.0012567592,-0.0017249787,-0.0024935518,9.6987,-0.326042,1.399213,0.748505,-0.117495,-0.644054,-0.10549,-0.27321603,-1.4219713,-0.044342165
21331769591584,0.077315392,0,,-0.0012567592,-0.0017249787,-0.0024935518,9.6987,-0.326042,1.399213,0.748505,-0.117495,-0.644054,-0.10549,-0.27321603,-1.4219713,-0.044342165
21331771627168,0.079350976,0,,-0.0012567592,-0.0017249787,-0.0024935518,9.6987,-0.326042,1.399213,0.748505,-0.117495,-0.644054,-0.10549,-0.27321603,-1.4219713,-0.044342165
21331773580288,0.081304096,0,,-0.0031553632,0.0013310055,-0.00071392691,9.6886349,-0.35396498,1.401076,0.74850297,-0.117491,-0.64405602,-0.105498,-0.27310819,-1.4219772,-0.044455786
21331775577760,0.083301568,0,,-0.0031553632,0.0013310055,-0.00071392691,9.6886349,-0.35396498,1.401076,0.74850297,-0.117491,-0.64405602,-0.105498,-0.27310819,-1.4219772,-0.044455786
21331777609920,0.085333728,0,,0.0032885493,0.00094434528,0.0026057068,9.6858482,-0.33886799,1.414449,0.748505,-0.117489,-0.644054,-0.105499,-0.2730705,-1.4219725,-0.044491202
21331779670848,0.087394656,0,,0.0032885493,0.00094434528,0.0026057068,9.6858482,-0.33886799,1.414449,0.748505,-0.117489,-0.644054,-0.105499,-0.2730705,-1.4219725,-0.044491202
21331781577344,0.089301152,0,,0.0032885493,0.00094434528,0.0026057068,9.6858482,-0.33886799,1.414449,0.748505,-0.117489,-0.644054,-0.105499,-0.2730705,-1.4219725,-0.044491202
21331783580704,0.091304512,0,,0.0035071868,-0.00076654859,0.0015645305,9.7601013,-0.334631,1.409475,0.74850601,-0.11748,-0.64405602,-0.10549,-0.27306103,-1.4219749,-0.044474166
21331785780640,0.093504448,0,,0.0035071868,-0.00076654859,0.0015645305,9.7601013,-0.334631,1.409475,0.74850601,-0.11748,-0.64405602,-0.10549,-0.27306103,-1.4219749,-0.044474166
21331787575776,0.095299584,0,,-0.0032779029,-0.0021419554,0.0015622093,9.7970695,-0.260216,1.385852,0.74850202,-0.117478,-0.64406097,-0.105487,-0.27306742,-1.4219866,-0.044461495
21331789569664,0.097293472,0,,-0.0032779029,-0.0021419554,0.0015622093,9.7970695,-0.260216,1.385852,0.74850202,-0.117478,-0.64406097,-0.105487,-0.27306742,-1.4219866,-0.044461495
21331791599296,0.099323104,0,,-0.0032779029,-0.0021419554,0.0015622093,9.7970695,-0.260216,1.385852,0.74850202,-0.117478,-0.64406097,-0.105487,-0.27306742,-1.4219866,-0.044461495
21331793595168,0.10131898,0,,-0.00021991149,0.0011068529,-0.00054000487,9.7934351,-0.374643,1.354879,0.74849999,-0.11747,-0.64406502,-0.105489,-0.27297922,-1.421997,-0.044541606
21331795593216,0.10331702,0,,-0.00021991149,0.0011068529,-0.00054000487,9.7934351,-0.374643,1.354879,0.74849999,-0.11747,-0.64406502,-0.105489,-0.27297922,-1.421997,-0.044541606
21331797565184,0.10528899,0,,-0.0023080582,-0.0016517098,-0.0017488374,9.7516394,-0.27194199,1.347119,0.748496,-0.117469,-0.64406902,-0.105496,-0.27291752,-1.4220106,-0.044611157
21331799615040,0.10733885,0,,-0.0023080582,-0.0016517098,-0.0017488374,9.7516394,-0.27194199,1.347119,0.748496,-0.117469,-0.64406902,-0.105496,-0.27291752,-1.4220106,-0.044611157
21331801593024,0.10931683,0,,-0.0023080582,-0.0016517098,-0.0017488374,9.7516394,-0.27194199,1.347119,0.748496,-0.117469,-0.64406902,-0.105496,-0.27291752,-1.4220106,-0.044611157
21331803591040,0.11131485,0,,0.0006030636,-0.00098635535,-7.4892075e-05,9.7333908,-0.296233,1.3573819,0.74848902,-0.117459,-0.644077,-0.105499,-0.27281439,-1.4220332,-0.044703485
21331805789824,0.11351363,0,,0.0006030636,-0.00098635535,-7.4892075e-05,9.7333908,-0.296233,1.3573819,0.74848902,-0.117459,-0.644077,-0.105499,-0.27281439,-1.4220332,-0.044703485
21331807622112,0.11534592,0,,0.0017274745,0.001869492,-0.002114606,9.6234369,-0.293385,1.357734,0.74848598,-0.117448,-0.64408302,-0.105499,-0.2727039,-1.422048,-0.044798535
21331809584224,0.11730803,0,,0.0017274745,0.001869492,-0.002114606,9.6234369,-0.293385,1.357734,0.74848598,-0.117448,-0.64408302,-0.105499,-0.2727039,-1.422048,-0.044798535
21331811601440,0.11932525,0,,0.0017274745,0.001869492,-0.002114606,9.6234369,-0.293385,1.357734,0.74848598,-0.117448,-0.64408302,-0.105499,-0.2727039,-1.422048,-0.044798535
21331813641152,0.12136496,0,,-0.0049270472,0.001354009,-0.0012648924,9.5985851,-0.28413999,1.371956,0.74848598,-0.117439,-0.64408302,-0.105507,-0.27255112,-1.42205,-0.044949857
21331815608544,0.12333235,0,,-0.0049270472,0.001354009,-0.0012648924,9.5985851,-0.28413999,1.371956,0.74848598,-0.117439,-0.64408302,-0.105507,-0.27255112,-1.42205,-0.044949857
21331817586752,0.12531056,0,,-0.0058515652,-0.00053295373,0.0024375791,9.6139231,-0.35891899,1.37262,0.74848402,-0.117441,-0.64408499,-0.105515,-0.27250415,-1.4220565,-0.045010418
21331819598336,0.12732214,0,,-0.0058515652,-0.00053295373,0.0024375791,9.6139231,-0.35891899,1.37262,0.74848402,-0.117441,-0.64408499,-0.105515,-0.27250415,-1.4220565,-0.045010418
21331821691680,0.12941549,0,,-0.0058515652,-0.00053295373,0.0024375791,9.6139231,-0.35891899,1.37262,0.74848402,-0.117441,-0.64408499,-0.105515,-0.27250415,-1.4220565,-0.045010418
21331823580576,0.13130438,0,,-0.0081873395,-5.6217057e-05,0.0049050559,9.6592493,-0.324449,1.379207,0.74848098,-0.11746,-0.64408398,-0.10552,-0.27264837,-1.4220573,-0.044901508
21331825750912,0.13347472,0,,-0.0081873395,-5.6217057e-05,0.0049050559,9.6592493,-0.324449,1.379207,0.74848098,-0.11746,-0.64408398,-0.10552,-0.27264837,-1.4220573,-0.044901508
21331827608640,0.13533245,0,,-0.001220439,-0.0043118011,0.0065162392,9.698596,-0.42326799,1.370268,0.74847698,-0.117472,-0.64408702,-0.105518,-0.27279899,-1.4220649,-0.044765741
21331829570784,0.13729459,0,,-0.001220439,-0.0043118011,0.0065162392,9.698596,-0.42326799,1.370268,0.74847698,-0.117472,-0.64408702,-0.105518,-0.27279899,-1.4220649,-0.044765741
21331831582688,0.1393065,0,,-0.001220439,-0.0043118011,0.0065162392,9.698596,-0.42326799,1.370268,0.74847698,-0.117472,-0.64408702,-0.105518,-0.27279899,-1.4220649,-0.044765741
21331833602944,0.14132675,0,,-0.0044852517,-0.0056892673,0.0024513149,9.7711906,-0.431986,1.405869,0.74846601,-0.117491,-0.644095,-0.105518,-0.27301276,-1.4220882,-0.044576789
21331835634848,0.14335866,0,,-0.0044852517,-0.0056892673,0.0024513149,9.7711906,-0.431986,1.405869,0.74846601,-0.117491,-0.644095,-0.105518,-0.27301276,-1.4220882,-0.044576789
21331837571808,0.14529562,0,,0.0032975552,0.0031737416,-0.0003172136,9.8207512,-0.462304,1.402915,0.74846101,-0.117501,-0.644099,-0.10552,-0.27311171,-1.4221011,-0.044495825
21331839570944,0.14729475,0,,0.0032975552,0.0031737416,-0.0003172136,9.8207512,-0.462304,1.402915,0.74846101,-0.117501,-0.644099,-0.10552,-0.27311171,-1.4221011,-0.044495825
21331841595840,0.14931965,0,,0.0032975552,0.0031737416,-0.0003172136,9.8207512,-0.462304,1.402915,0.74846101,-0.117501,-0.644099,-0.10552,-0.27311171,-1.4221011,-0.044495825
21331843562720,0.15128653,0,,0.0081474061,0.00564621,0.0012116599,9.7551003,-0.38753,1.412192,0.74847001,-0.117495,-0.64409101,-0.105516,-0.27306118,-1.4220766,-0.044531203
21331845770784,0.15349459,0,,0.0081474061,0.00564621,0.0012116599,9.7551003,-0.38753,1.412192,0.74847001,-0.117495,-0.64409101,-0.105516,-0.27306118,-1.4220766,-0.044531203
21331847619808,0.15534362,0,,0.0021354452,0.0048604276,0.0017142973,9.7168941,-0.44581199,1.3967119,0.74847901,-0.117485,-0.64408302,-0.105506,-0.27303047,-1.4220528,-0.044533575
21331849601664,0.15732547,0,,0.0021354452,0.0048604276,0.0017142973,9.7168941,-0.44581199,1.3967119,0.74847901,-0.117485,-0.64408302,-0.105506,-0.27303047,-1.4220528,-0.044533575
21331851595968,0.15931978,0,,0.0021354452,0.0048604276,0.0017142973,9.7168941,-0.44581199,1.3967119,0.74847901,-0.117485,-0.64408302,-0.105506,-0.27303047,-1.4220528,-0.044533575
21331853560000,0.16128381,0,,-0.00056522486,0.0024516465,0.0056796852,9.752861,-0.47589499,1.421581,0.74848598,-0.117494,-0.64407402,-0.105505,-0.27311836,-1.4220291,-0.044458058
21331855595488,0.1633193,0,,-0.00056522486,0.0024516465,0.0056796852,9.752861,-0.47589499,1.421581,0.74848598,-0.117494,-0.64407402,-0.105505,-0.27311836,-1.4220291,-0.044458058
21331857590112,0.16531392,0,,0.005994979,0.001527198,0.0023564214,9.7038774,-0.43778199,1.40219,0.74848902,-0.117502,-0.64406997,-0.105498,-0.27325123,-1.4220159,-0.044327068
21331859586528,0.16731034,0,,0.005994979,0.001527198,0.0023564214,9.7038774,-0.43778199,1.40219,0.74848902,-0.117502,-0.64406997,-0.105498,-0.27325123,-1.4220159,-0.044327068
21331861582624,0.16930643,0,,0.005994979,0.001527198,0.0023564214,9.7038774,-0.43778199,1.40219,0.74848902,-0.117502,-0.64406997,-0.105498,-0.27325123,-1.4220159,-0.044327068
21331863548448,0.17127226,0,,0.0031426921,0.0016097696,0.0024396038,9.6600504,-0.454743,1.394267,0.748492,-0.1175,-0.644068,-0.105489,-0.2733023,-1.4220074,-0.044260293
21331865781728,0.17350554,0,,0.0031426921,0.0016097696,0.0024396038,9.6600504,-0.454743,1.394267,0.748492,-0.1175,-0.644068,-0.105489,-0.2733023,-1.4220074,-0.044260293
21331867605216,0.17532902,0,,-0.0056174645,-0.00077878333,-0.00047642252,9.6549406,-0.52414501,1.388171,0.748492,-0.117511,-0.64406598,-0.105491,-0.27338482,-1.4220034,-0.044196502
21331869584128,0.17730794,0,,-0.0056174645,-0.00077878333,-0.00047642252,9.6549406,-0.52414501,1.388171,0.748492,-0.117511,-0.64406598,-0.105491,-0.27338482,-1.4220034,-0.044196502
21331871589664,0.17931347,0,,-0.0056174645,-0.00077878333,-0.00047642252,9.6549406,-0.52414501,1.388171,0.748492,-0.117511,-0.64406598,-0.105491,-0.27338482,-1.4220034,-0.044196502
21331873577344,0.18130115,0,,-0.0056353716,0.00012454669,-0.00010871656,9.7067223,-0.43088999,1.401871,0.74848801,-0.117533,-0.64406401,-0.10551,-0.27345641,-1.4220054,-0.044184526
21331875583488,0.1833073,0,,-0.0056353716,0.00012454669,-0.00010871656,9.7067223,-0.43088999,1.401871,0.74848801,-0.117533,-0.64406401,-0.10551,-0.27345641,-1.4220054,-0.044184526
21331877638944,0.18536275,0,,0.00098659969,-0.00021118484,-0.00021469295,9.6955729,-0.453435,1.414187,0.74848598,-0.117542,-0.644063,-0.105518,-0.27347192,-1.4220066,-0.044191771
21331879830464,0.18755427,0,,0.00098659969,-0.00021118484,-0.00021469295,9.6955729,-0.453435,1.414187,0.74848598,-0.117542,-0.644063,-0.105518,-0.27347192,-1.4220066,-0.044191771
21331882801952,0.19052576,0,,0.00098659969,-0.00021118484,-0.00021469295,9.6955729,-0.453435,1.414187,0.74848598,-0.117542,-0.644063,-0.105518,-0.27347192,-1.4220066,-0.044191771
21331887324192,0.195048,0,,0.00097509797,0.0013696471,0.00085706135,9.6059456,-0.37687901,1.40266,0.748487,-0.117543,-0.64406198,-0.105518,-0.27348709,-1.4220059,-0.044179937
21331887415872,0.19513968,0,,0.00097509797,0.0013696471,0.00085706135,9.6059456,-0.37687901,1.40266,0.748487,-0.117543,-0.64406198,-0.105518,-0.27348709,-1.4220059,-0.044179937
21331890325472,0.19804928,0,,0.00039177405,0.00090771082,0.0026162486,9.7215586,-0.40301201,1.425045,0.74848801,-0.117544,-0.64406097,-0.105518,-0.27349238,-1.4220018,-0.044174319
21331890418816,0.19814262,0,,0.00039177405,0.00090771082,0.0026162486,9.7215586,-0.40301201,1.425045,0.74848801,-0.117544,-0.64406097,-0.105518,-0.27349238,-1.4220018,-0.044174319
21331891776928,0.19950074,0,,0.00039177405,0.00090771082,0.0026162486,9.7215586,-0.40301201,1.425045,0.74848801,-0.117544,-0.64406097,-0.105518,-0.27349238,-1.4220018,-0.044174319
21331893659040,0.20138285,0,,0.0009764419,0.0013159957,0.0016141678,9.8233194,-0.41548499,1.4163359,0.74848998,-0.117546,-0.644059,-0.105513,-0.27355072,-1.4219942,-0.044111872
21331895616160,0.20333997,0,,0.0009764419,0.0013159957,0.0016141678,9.8233194,-0.41548499,1.4163359,0.74848998,-0.117546,-0.644059,-0.105513,-0.27355072,-1.4219942,-0.044111872
21331897607296,0.2053311,0,,0.00046076692,0.0037565071,0.0043804974,9.7831964,-0.37938401,1.394092,0.74849397,-0.117551,-0.644054,-0.10551,-0.27361021,-1.4219813,-0.044056333
21331899593312,0.20731712,0,,0.00046076692,0.0037565071,0.0043804974,9.7831964,-0.37938401,1.394092,0.74849397,-0.117551,-0.644054,-0.10551,-0.27361021,-1.4219813,-0.044056333
21331901582272,0.20930608,0,,0.00046076692,0.0037565071,0.0043804974,9.7831964,-0.37938401,1.394092,0.74849397,-0.117551,-0.644054,-0.10551,-0.27361021,-1.4219813,-0.044056333
21331903600032,0.21132384,0,,0.0026461634,0.0026912803,0.0053681614,9.822073,-0.36584198,1.422383,0.74849898,-0.117555,-0.64404798,-0.105501,-0.27372078,-1.4219637,-0.043939432
21331905793760,0.21351757,0,,0.0026461634,0.0026912803,0.0053681614,9.822073,-0.36584198,1.422383,0.74849898,-0.117555,-0.64404798,-0.105501,-0.27372078,-1.4219637,-0.043939432
21331907578304,0.21530211,0,,-0.0015076503,0.00262035,0.00071685905,9.6982794,-0.36942601,1.394747,0.74850202,-0.117555,-0.644045,-0.105498,-0.27374506,-1.4219535,-0.043911473
21331909561088,0.2172849,0,,-0.0015076503,0.00262035,0.00071685905,9.6982794,-0.36942601,1.394747,0.74850202,-0.117555,-0.644045,-0.105498,-0.27374506,-1.4219535,-0.043911473
21331911590848,0.21931466,0,,-0.0015076503,0.00262035,0.00071685905,9.6982794,-0.36942601,1.394747,0.74850202,-0.117555,-0.644045,-0.105498,-0.27374506,-1.4219535,-0.043911473
21331913630624,0.22135443,0,,-0.0029362373,-0.0011075859,0.0004587598,9.6739063,-0.29175401,1.368549,0.748501,-0.117557,-0.644045,-0.105503,-0.27372194,-1.4219556,-0.043943902
21331915619584,0.22334339,0,,-0.0029362373,-0.0011075859,0.0004587598,9.6739063,-0.29175401,1.368549,0.748501,-0.117557,-0.644045,-0.105503,-0.27372194,-1.4219556,-0.043943902
21331917596576,0.22532038,0,,-0.0011101341,-0.00043507567,-0.00016636478,9.6380053,-0.31803101,1.350158,0.74849802,-0.117552,-0.64404899,-0.105505,-0.27366517,-1.4219669,-0.043995038
21331919598144,0.22732195,0,,-0.0011101341,-0.00043507567,-0.00016636478,9.6380053,-0.31803101,1.350158,0.74849802,-0.117552,-0.64404899,-0.105505,-0.27366517,-1.4219669,-0.043995038
21331921707072,0.22943088,0,,-0.0011101341,-0.00043507567,-0.00016636478,9.6380053,-0.31803101,1.350158,0.74849802,-0.117552,-0.64404899,-0.105505,-0.27366517,-1.4219669,-0.043995038
21331923766112,0.23148992,0,,-0.0021045529,0.0013014572,0.0011383037,9.6577616,-0.33856401,1.342382,0.74849498,-0.117551,-0.64405197,-0.105509,-0.27362532,-1.4219757,-0.044040504
21331925812032,0.23353584,0,,-0.0021045529,0.0013014572,0.0011383037,9.6577616,-0.33856401,1.342382,0.74849498,-0.117551,-0.64405197,-0.105509,-0.27362532,-1.4219757,-0.044040504
21331927624928,0.23534874,0,,-0.0029618411,0.0046347393,0.0036172297,9.6732492,-0.30852601,1.324199,0.74849498,-0.117558,-0.64405,-0.105513,-0.27366091,-1.4219725,-0.044019631
21331929593536,0.23731734,0,,-0.0029618411,0.0046347393,0.0036172297,9.6732492,-0.30852601,1.324199,0.74849498,-0.117558,-0.64405,-0.105513,-0.27366091,-1.4219725,-0.044019631
21331931601312,0.23932512,0,,-0.0029618411,0.0046347393,0.0036172297,9.6732492,-0.30852601,1.324199,0.74849498,-0.117558,-0.64405,-0.105513,-0.27366091,-1.4219725,-0.044019631
21331933607776,0.24133158,0,,0.0072987748,0.0081644233,0.003741061,9.6657152,-0.30490801,1.3187799,0.748505,-0.117552,-0.64404202,-0.105505,-0.27364453,-1.4219467,-0.044017555
21331935606496,0.2433303,0,,0.0072987748,0.0081644233,0.003741061,9.6657152,-0.30490801,1.3187799,0.748505,-0.117552,-0.64404202,-0.105505,-0.27364453,-1.4219467,-0.044017555
21331937580416,0.24530422,0,,0.0013793337,0.0020114221,0.0029986328,9.7620754,-0.43712601,1.305922,0.74851197,-0.11754,-0.64403701,-0.105496,-0.27359112,-1.4219315,-0.044039738
21331939613696,0.2473375,0,,0.0013793337,0.0020114221,0.0029986328,9.7620754,-0.43712601,1.305922,0.74851197,-0.11754,-0.64403701,-0.105496,-0.27359112,-1.4219315,-0.044039738
21331941568736,0.24929254,0,,0.0013793337,0.0020114221,0.0029986328,9.7620754,-0.43712601,1.305922,0.74851197,-0.11754,-0.64403701,-0.105496,-0.27359112,-1.4219315,-0.044039738
21331943571104,0.25129491,0,,-9.044296e-05,-0.0020232903,0.0024287478,9.7937336,-0.30796301,1.295516,0.74850601,-0.117552,-0.64404202,-0.105495,-0.27373366,-1.4219443,-0.043912276
21331945769056,0.25349286,0,,-9.044296e-05,-0.0020232903,0.0024287478,9.7937336,-0.30796301,1.295516,0.74850601,-0.117552,-0.64404202,-0.105495,-0.27373366,-1.4219443,-0.043912276
21331947600448,0.25532426,0,,-9.044296e-05,-0.0020232903,0.0024287478,9.7937336,-0.30796301,1.295516,0.74850601,-0.117552,-0.64404202,-0.105495,-0.27373366,-1.4219443,-0.043912276
21331949568736,0.25729254,0,,-9.044296e-05,-0.0020232903,0.0024287478,9.7937336,-0.30796301,1.295516,0.74850601,-0.117552,-0.64404202,-0.105495,-0.27373366,-1.4219443,-0.043912276
21331951624704,0.25934851,0,,-9.044296e-05,-0.0020232903,0.0024287478,9.7937336,-0.30796301,1.295516,0.74850601,-0.117552,-0.64404202,-0.105495,-0.27373366,-1.4219443,-0.043912276
21331953650720,0.26137453,0,,-0.0024045575,-0.001088684,0.00030639255,9.7631235,-0.399149,1.277333,0.74848598,-0.117557,-0.64406502,-0.105492,-0.27385722,-1.4220034,-0.043792805
21331955568224,0.26329203,0,,-0.0024045575,-0.001088684,0.00030639255,9.7631235,-0.399149,1.277333,0.74848598,-0.117557,-0.64406502,-0.105492,-0.27385722,-1.4220034,-0.043792805
21331957561440,0.26528525,0,,-0.0014615736,0.0059938622,-0.0014516951,9.8155079,-0.39937201,1.286863,0.74848497,-0.117561,-0.644063,-0.105502,-0.27380771,-1.4220034,-0.043861714
21331959592000,0.26731581,0,,-0.0014615736,0.0059938622,-0.0014516951,9.8155079,-0.39937201,1.286863,0.74848497,-0.117561,-0.644063,-0.105502,-0.27380771,-1.4220034,-0.043861714
21331961589856,0.26931366,0,,-0.0014615736,0.0059938622,-0.0014516951,9.8155079,-0.39937201,1.286863,0.74848497,-0.117561,-0.644063,-0.105502,-0.27380771,-1.4220034,-0.043861714
21331963587904,0.27131171,0,,-0.0033017265,4.2970004e-05,-0.00057861154,9.7535324,-0.36882001,1.284276,0.748483,-0.117566,-0.644063,-0.105515,-0.2737421,-1.4220071,-0.043952611
21331965756672,0.27348048,0,,-0.0033017265,4.2970004e-05,-0.00057861154,9.7535324,-0.36882001,1.284276,0.748483,-0.117566,-0.644063,-0.105515,-0.2737421,-1.4220071,-0.043952611
21331967613920,0.27533773,0,,-0.0019573519,0.0034378447,0.0024818758,9.7091465,-0.45368001,1.259234,0.74848002,-0.117573,-0.64406401,-0.105519,-0.27378634,-1.4220135,-0.04392491
21331969585056,0.27730886,0,,-0.0019573519,0.0034378447,0.0024818758,9.7091465,-0.45368001,1.259234,0.74848002,-0.117573,-0.64406401,-0.105519,-0.27378634,-1.4220135,-0.04392491
21331971613856,0.27933766,0,,-0.0019573519,0.0034378447,0.0024818758,9.7091465,-0.45368001,1.259234,0.74848002,-0.117573,-0.64406401,-0.105519,-0.27378634,-1.4220135,-0.04392491
21331973676288,0.2814001,0,,0.0018973126,0.00083973026,0.0011786208,9.6982241,-0.455412,1.2689869,0.74847698,-0.117584,-0.64406502,-0.105523,-0.27387399,-1.4220162,-0.043857944
21331975630528,0.28335434,0,,0.0018973126,0.00083973026,0.0011786208,9.6982241,-0.455412,1.2689869,0.74847698,-0.117584,-0.64406502,-0.105523,-0.27387399,-1.4220162,-0.043857944
21331977579040,0.28530285,0,,-0.0075581484,-0.0031890831,0.0017996439,9.6771164,-0.40226799,1.2915519,0.74846697,-0.1176,-0.644072,-0.105529,-0.27400534,-1.4220388,-0.043758092
21331979588768,0.28731258,0,,-0.0075581484,-0.0031890831,0.0017996439,9.6771164,-0.40226799,1.2915519,0.74846697,-0.1176,-0.644072,-0.105529,-0.27400534,-1.4220388,-0.043758092
21331981600896,0.2893247,0,,-0.0075581484,-0.0031890831,0.0017996439,9.6771164,-0.40226799,1.2915519,0.74846697,-0.1176,-0.644072,-0.105529,-0.27400534,-1.4220388,-0.043758092
21331983583872,0.29130768,0,,-0.0065015783,0.0026552915,0.00026298621,9.6498966,-0.453915,1.2670259,0.74845999,-0.117621,-0.64407498,-0.105541,-0.2741218,-1.4220512,-0.043689761
21331985755392,0.2934792,0,,-0.0065015783,0.0026552915,0.00026298621,9.6498966,-0.453915,1.2670259,0.74845999,-0.117621,-0.64407498,-0.105541,-0.2741218,-1.4220512,-0.043689761
21331987589952,0.29531376,0,,-0.0027787386,0.0024411047,0.0010957526,9.6811581,-0.44017699,1.2872339,0.74845701,-0.11764,-0.64407301,-0.105555,-0.27419465,-1.4220528,-0.043663005
21331989618176,0.29734198,0,,-0.0027787386,0.0024411047,0.0010957526,9.6811581,-0.44017699,1.2872339,0.74845701,-0.11764,-0.64407301,-0.105555,-0.27419465,-1.4220528,-0.043663005
21331991607520,0.29933133,0,,-0.0027787386,0.0024411047,0.0010957526,9.6811581,-0.44017699,1.2872339,0.74845701,-0.11764,-0.64407301,-0.105555,-0.27419465,-1.4220528,-0.043663005
21331993602368,0.30132618,0,,-0.0054904395,0.0028704034,-0.00096783741,9.7374783,-0.472936,1.297111,0.74845397,-0.117655,-0.644072,-0.105568,-0.27423127,-1.4220537,-0.043666042
21331995631072,0.30335488,0,,-0.0054904395,0.0028704034,-0.00096783741,9.7374783,-0.472936,1.297111,0.74845397,-0.117655,-0.644072,-0.105568,-0.27423127,-1.4220537,-0.043666042
21331997612832,0.30533664,0,,-0.0036700609,0.00061001005,-0.0037492291,9.7964916,-0.42807299,1.3155479,0.74844903,-0.117671,-0.64407098,-0.105586,-0.27423553,-1.4220613,-0.043711299
21331999577792,0.3073016,0,,-0.0036700609,0.00061001005,-0.0037492291,9.7964916,-0.42807299,1.3155479,0.74844903,-0.117671,-0.64407098,-0.105586,-0.27423553,-1.4220613,-0.043711299
21332001600448,0.30932426,0,,-0.0036700609,0.00061001005,-0.0037492291,9.7964916,-0.42807299,1.3155479,0.74844903,-0.117671,-0.64407098,-0.105586,-0.27423553,-1.4220613,-0.043711299
21332003598752,0.31132256,0,,-0.0017077523,-0.00044799113,-0.0042057025,9.8181601,-0.45662001,1.349547,0.74844098,-0.117675,-0.644077,-0.105602,-0.27415291,-1.4220834,-0.043821883
21332005743520,0.31346733,0,,-0.0017077523,-0.00044799113,-0.0042057025,9.8181601,-0.45662001,1.349547,0.74844098,-0.117675,-0.644077,-0.105602,-0.27415291,-1.4220834,-0.043821883
21332007585472,0.31530928,0,,0.00055988417,0.0026649257,-0.0015817744,9.7596397,-0.391994,1.360317,0.748438,-0.11768,-0.64407802,-0.105615,-0.27410291,-1.4220902,-0.043898278
21332009598496,0.3173223,0,,0.00055988417,0.0026649257,-0.0015817744,9.7596397,-0.391994,1.360317,0.748438,-0.11768,-0.64407802,-0.105615,-0.27410291,-1.4220902,-0.043898278
21332011587424,0.31931123,0,,0.00055988417,0.0026649257,-0.0015817744,9.7596397,-0.391994,1.360317,0.748438,-0.11768,-0.64407802,-0.105615,-0.27410291,-1.4220902,-0.043898278
21332013562272,0.32128608,0,,0.0021592341,-0.00010917034,-0.0066091606,9.8215446,-0.37199301,1.386148,0.74843597,-0.117673,-0.64407998,-0.105624,-0.2739453,-1.4220966,-0.044059037
21332015592480,0.32331629,0,,0.0021592341,-0.00010917034,-0.0066091606,9.8215446,-0.37199301,1.386148,0.74843597,-0.117673,-0.64407998,-0.105624,-0.2739453,-1.4220966,-0.044059037
21332017616128,0.32533994,0,,-0.001996168,0.0012654335,-0.001606785,9.766799,-0.37453601,1.4102,0.74843198,-0.117663,-0.64408398,-0.105635,-0.27377035,-1.4221116,-0.044235476
21332019572608,0.32729642,0,,-0.001996168,0.0012654335,-0.001606785,9.766799,-0.37453601,1.4102,0.74843198,-0.117663,-0.64408398,-0.105635,-0.27377035,-1.4221116,-0.044235476
21332021579712,0.32930352,0,,-0.001996168,0.0012654335,-0.001606785,9.766799,-0.37453601,1.4102,0.74843198,-0.117663,-0.64408398,-0.105635,-0.27377035,-1.4221116,-0.044235476
21332023585600,0.33130941,0,,0.00031239647,0.0013656853,-0.0014464242,9.6536045,-0.36310101,1.415651,0.74843401,-0.117661,-0.64408201,-0.105643,-0.27366998,-1.4221092,-0.044342918
21332025754080,0.33347789,0,,0.00031239647,0.0013656853,-0.0014464242,9.6536045,-0.36310101,1.415651,0.74843401,-0.117661,-0.64408201,-0.105643,-0.27366998,-1.4221092,-0.044342918
21332027585504,0.33530931,0,,0.0041639541,0.0052504216,-0.0046129227,9.6490822,-0.303642,1.453371,0.748438,-0.117645,-0.64407802,-0.105648,-0.27345378,-1.422099,-0.044545098
21332029578752,0.33730256,0,,0.0041639541,0.0052504216,-0.0046129227,9.6490822,-0.303642,1.453371,0.748438,-0.117645,-0.64407802,-0.105648,-0.27345378,-1.422099,-0.044545098
21332031613536,0.33933734,0,,0.0041639541,0.0052504216,-0.0046129227,9.6490822,-0.303642,1.453371,0.748438,-0.117645,-0.64407802,-0.105648,-0.27345378,-1.422099,-0.044545098
21332033542688,0.3412665,0,,-0.0017933259,-0.0010602526,-0.0026816984,9.6019077,-0.336429,1.450912,0.74844497,-0.117625,-0.64407402,-0.105652,-0.27320514,-1.4220882,-0.044770505
21332035657024,0.34338083,0,,-0.0017933259,-0.0010602526,-0.0026816984,9.6019077,-0.336429,1.450912,0.74844497,-0.117625,-0.64407402,-0.105652,-0.27320514,-1.4220882,-0.044770505
21332037584640,0.34530845,0,,-0.0035361417,-0.0059701955,-0.00050659927,9.6401367,-0.330295,1.4799351,0.748438,-0.117625,-0.644081,-0.105658,-0.27316682,-1.4221112,-0.044816407
21332039651744,0.34737555,0,,-0.0035361417,-0.0059701955,-0.00050659927,9.6401367,-0.330295,1.4799351,0.748438,-0.117625,-0.644081,-0.105658,-0.27316682,-1.4221112,-0.044816407
21332041576416,0.34930022,0,,-0.0035361417,-0.0059701955,-0.00050659927,9.6401367,-0.330295,1.4799351,0.748438,-0.117625,-0.644081,-0.105658,-0.27316682,-1.4221112,-0.044816407
21332043573664,0.35129747,0,,-0.0013259441,-0.0049360879,-0.0011500498,9.6940126,-0.37222999,1.507075,0.74843103,-0.117621,-0.64408797,-0.105662,-0.27310695,-1.42213,-0.04487793
21332045771520,0.35349533,0,,-0.0013259441,-0.0049360879,-0.0011500498,9.6940126,-0.37222999,1.507075,0.74843103,-0.117621,-0.64408797,-0.105662,-0.27310695,-1.42213,-0.04487793
21332047590496,0.3553143,0,,-0.002316558,-0.004486718,-0.00262967,9.6809225,-0.348557,1.521421,0.74842602,-0.117618,-0.644095,-0.105667,-0.27304059,-1.4221487,-0.0449457
21332049570368,0.35729418,0,,-0.002316558,-0.004486718,-0.00262967,9.6809225,-0.348557,1.521421,0.74842602,-0.117618,-0.644095,-0.105667,-0.27304059,-1.4221487,-0.0449457
21332051586112,0.35930992,0,,-0.002316558,-0.004486718,-0.00262967,9.6809225,-0.348557,1.521421,0.74842602,-0.117618,-0.644095,-0.105667,-0.27304059,-1.4221487,-0.0449457
21332053570624,0.36129443,0,,-0.0020310921,0.0036008934,-0.0042141323,9.778079,-0.36473998,1.565438,0.74842799,-0.117609,-0.64409202,-0.105679,-0.27284258,-1.4221449,-0.045146868
21332055587904,0.36331171,0,,-0.0020310921,0.0036008934,-0.0042141323,9.778079,-0.36473998,1.565438,0.74842799,-0.117609,-0.64409202,-0.105679,-0.27284258,-1.4221449,-0.045146868
21332057565760,0.36528957,0,,0.0022327123,0.0029610734,-0.0025401696,9.7678833,-0.38891101,1.5733759,0.748438,-0.117595,-0.64408201,-0.105684,-0.2726379,-1.4221192,-0.045340284
21332059621248,0.36734506,0,,0.0022327123,0.0029610734,-0.0025401696,9.7678833,-0.38891101,1.5733759,0.748438,-0.117595,-0.64408201,-0.105684,-0.2726379,-1.4221192,-0.045340284
21332061562144,0.36928595,0,,0.0022327123,0.0029610734,-0.0025401696,9.7678833,-0.38891101,1.5733759,0.748438,-0.117595,-0.64408201,-0.105684,-0.2726379,-1.4221192,-0.045340284
21332063603328,0.37132714,0,,0.00055778979,0.0015286989,-0.0034395378,9.7412786,-0.357079,1.584034,0.74844801,-0.117582,-0.644072,-0.105687,-0.27245729,-1.4220926,-0.045506299
21332065733952,0.37345776,0,,0.00055778979,0.0015286989,-0.0034395378,9.7412786,-0.357079,1.584034,0.74844801,-0.117582,-0.644072,-0.105687,-0.27245729,-1.4220926,-0.045506299
21332067563744,0.37528755,0,,0.002286329,0.0011937005,-0.0026843337,9.7108545,-0.42426401,1.5768549,0.74845499,-0.117566,-0.64406699,-0.10569,-0.27225369,-1.422081,-0.045691863
21332069563680,0.37728749,0,,0.002286329,0.0011937005,-0.0026843337,9.7108545,-0.42426401,1.5768549,0.74845499,-0.117566,-0.64406699,-0.10569,-0.27225369,-1.422081,-0.045691863
21332071732544,0.37945635,0,,0.002286329,0.0011937005,-0.0026843337,9.7108545,-0.42426401,1.5768549,0.74845499,-0.117566,-0.64406699,-0.10569,-0.27225369,-1.422081,-0.045691863
21332073717728,0.38144154,0,,0.0014661115,0.0033246776,-0.002707756,9.6917505,-0.42451999,1.578317,0.74846697,-0.117559,-0.644054,-0.105694,-0.27211709,-1.4220477,-0.045823569
21332075633856,0.38335766,0,,0.0014661115,0.0033246776,-0.002707756,9.6917505,-0.42451999,1.578317,0.74846697,-0.117559,-0.644054,-0.105694,-0.27211709,-1.4220477,-0.045823569
21332077568736,0.38529254,0,,0.0040067698,0.0012393583,-0.0011392114,9.6741877,-0.456927,1.578133,0.74847502,-0.117549,-0.644045,-0.105696,-0.27198242,-1.4220243,-0.045948742
21332079592992,0.3873168,0,,0.0040067698,0.0012393583,-0.0011392114,9.6741877,-0.456927,1.578133,0.74847502,-0.117549,-0.644045,-0.105696,-0.27198242,-1.4220243,-0.045948742
21332081547616,0.38927142,0,,0.0040067698,0.0012393583,-0.0011392114,9.6741877,-0.456927,1.578133,0.74847502,-0.117549,-0.644045,-0.105696,-0.27198242,-1.4220243,-0.045948742
21332083586880,0.39131069,0,,0.0060864341,0.0032646209,-0.0015877609,9.6274357,-0.450205,1.557367,0.748487,-0.117537,-0.64403498,-0.105693,-0.27186299,-1.4219957,-0.046046392
21332085754432,0.39347824,0,,0.0060864341,0.0032646209,-0.0015877609,9.6274357,-0.450205,1.557367,0.748487,-0.117537,-0.64403498,-0.105693,-0.27186299,-1.4219957,-0.046046392
21332087636160,0.39535997,0,,0.0055119591,0.0075086683,-0.0031132312,9.6382265,-0.47304201,1.55901,0.74850202,-0.117525,-0.64401799,-0.105695,-0.27168877,-1.4219523,-0.04620515
21332089547488,0.3972713,0,,0.0055119591,0.0075086683,-0.0031132312,9.6382265,-0.47304201,1.55901,0.74850202,-0.117525,-0.64401799,-0.105695,-0.27168877,-1.4219523,-0.04620515
21332091580416,0.39930422,0,,0.0055119591,0.0075086683,-0.0031132312,9.6382265,-0.47304201,1.55901,0.74850202,-0.117525,-0.64401799,-0.105695,-0.27168877,-1.4219523,-0.04620515
21332093573664,0.40129747,0,,-0.00019289379,0.0034671489,-0.0040326706,9.6734829,-0.483262,1.566038,0.74851602,-0.117518,-0.64400202,-0.105701,-0.27153619,-1.4219126,-0.046356975
21332095574848,0.40329866,0,,-0.00019289379,0.0034671489,-0.0040326706,9.6734829,-0.483262,1.566038,0.74851602,-0.117518,-0.64400202,-0.105701,-0.27153619,-1.4219126,-0.046356975
21332097571296,0.4052951,0,,-0.0022515446,0.0052704405,-0.005767842,9.6496773,-0.451702,1.540341,0.74852598,-0.117516,-0.64398801,-0.105718,-0.27134331,-1.4218821,-0.046572367
21332099586592,0.4073104,0,,-0.0022515446,0.0052704405,-0.005767842,9.6496773,-0.451702,1.540341,0.74852598,-0.117516,-0.64398801,-0.105718,-0.27134331,-1.4218821,-0.046572367
21332101586208,0.40931002,0,,-0.0022515446,0.0052704405,-0.005767842,9.6496773,-0.451702,1.540341,0.74852598,-0.117516,-0.64398801,-0.105718,-0.27134331,-1.4218821,-0.046572367
21332103588992,0.4113128,0,,0.0012619778,0.0052443826,-0.0025356318,9.6756477,-0.40741,1.54415,0.74853802,-0.117513,-0.64397299,-0.10573,-0.27117798,-1.4218471,-0.046751194
21332106545472,0.41426928,0,,0.0012619778,0.0052443826,-0.0025356318,9.6756477,-0.40741,1.54415,0.74853802,-0.117513,-0.64397299,-0.10573,-0.27117798,-1.4218471,-0.046751194
21332107665568,0.41538938,0,,0.0044936994,0.0035095431,-0.00011334168,9.712388,-0.444446,1.555931,0.74855,-0.117504,-0.64396101,-0.105729,-0.27106236,-1.4218138,-0.046853243
21332109601472,0.41732528,0,,0.0044936994,0.0035095431,-0.00011334168,9.712388,-0.444446,1.555931,0.74855,-0.117504,-0.64396101,-0.105729,-0.27106236,-1.4218138,-0.046853243
21332111565472,0.41928928,0,,0.0044936994,0.0035095431,-0.00011334168,9.712388,-0.444446,1.555931,0.74855,-0.117504,-0.64396101,-0.105729,-0.27106236,-1.4218138,-0.046853243
21332113561792,0.4212856,0,,0.0049196466,0.0057360771,-0.0016991827,9.7159853,-0.45555699,1.541451,0.74856299,-0.117493,-0.64394802,-0.105725,-0.27096774,-1.4217772,-0.046927574
21332115634016,0.42335782,0,,0.0049196466,0.0057360771,-0.0016991827,9.7159853,-0.45555699,1.541451,0.74856299,-0.117493,-0.64394802,-0.105725,-0.27096774,-1.4217772,-0.046927574
21332117575904,0.42529971,0,,0.0011158762,0.006880891,-0.0014805977,9.7602949,-0.40533301,1.533444,0.74857801,-0.117488,-0.64393097,-0.105729,-0.27083852,-1.4217343,-0.047055227
21332119563136,0.42728694,0,,0.0011158762,0.006880891,-0.0014805977,9.7602949,-0.40533301,1.533444,0.74857801,-0.117488,-0.64393097,-0.105729,-0.27083852,-1.4217343,-0.047055227
21332121627424,0.42935123,0,,0.0011158762,0.006880891,-0.0014805977,9.7602949,-0.40533301,1.533444,0.74857801,-0.117488,-0.64393097,-0.105729,-0.27083852,-1.4217343,-0.047055227
21332123575008,0.43129882,0,,0.0022861196,0.0043485228,-0.0061037826,9.7444878,-0.41585001,1.5203969,0.74859202,-0.117477,-0.64391601,-0.105735,-0.27065696,-1.4216958,-0.04722936
21332125756768,0.43348058,0,,0.0022861196,0.0043485228,-0.0061037826,9.7444878,-0.41585001,1.5203969,0.74859202,-0.117477,-0.64391601,-0.105735,-0.27065696,-1.4216958,-0.04722936
21332127586976,0.43531078,0,,0.0091915843,0.0054974032,-0.0048149796,9.7255249,-0.427856,1.5116251,0.748604,-0.117455,-0.643906,-0.105738,-0.27038141,-1.4216692,-0.047479185
21332129596384,0.43732019,0,,0.0091915843,0.0054974032,-0.0048149796,9.7255249,-0.427856,1.5116251,0.748604,-0.117455,-0.643906,-0.105738,-0.27038141,-1.4216692,-0.047479185
21332131552896,0.4392767,0,,0.0091915843,0.0054974032,-0.0048149796,9.7255249,-0.427856,1.5116251,0.748604,-0.117455,-0.643906,-0.105738,-0.27038141,-1.4216692,-0.047479185
21332133554848,0.44127866,0,,0.0014165092,-0.0051396804,-0.006875096,9.7041759,-0.385243,1.475366,0.74860698,-0.117437,-0.64390498,-0.105742,-0.27015389,-1.4216661,-0.047685223
21332135595776,0.44331958,0,,0.0014165092,-0.0051396804,-0.006875096,9.7041759,-0.385243,1.475366,0.74860698,-0.117437,-0.64390498,-0.105742,-0.27015389,-1.4216661,-0.047685223
21332137549056,0.44527286,0,,0.0044961603,-0.00033627259,-0.0050429369,9.6742754,-0.33357099,1.4617079,0.74860102,-0.117422,-0.64391297,-0.10575,-0.26994666,-1.4216887,-0.047883054
21332139695968,0.44741978,0,,0.0044961603,-0.00033627259,-0.0050429369,9.6742754,-0.33357099,1.4617079,0.74860102,-0.117422,-0.64391297,-0.10575,-0.26994666,-1.4216887,-0.047883054
21332141593600,0.44931741,0,,0.0044961603,-0.00033627259,-0.0050429369,9.6742754,-0.33357099,1.4617079,0.74860102,-0.117422,-0.64391297,-0.10575,-0.26994666,-1.4216887,-0.047883054
21332143590272,0.45131408,0,,0.0081127439,0.0062947219,-0.0024922254,9.6325388,-0.33312899,1.4569759,0.74861002,-0.117399,-0.64390802,-0.105747,-0.26972619,-1.4216733,-0.048067207
21332145743680,0.45346749,0,,0.0081127439,0.0062947219,-0.0024922254,9.6325388,-0.33312899,1.4569759,0.74861002,-0.117399,-0.64390802,-0.105747,-0.26972619,-1.4216733,-0.048067207
21332147574336,0.45529814,0,,0.0027969077,0.004755097,-0.0012144,9.6055126,-0.34024301,1.406381,0.74862099,-0.117377,-0.64389902,-0.105744,-0.26951177,-1.4216483,-0.048245473
21332149572384,0.45729619,0,,0.0027969077,0.004755097,-0.0012144,9.6055126,-0.34024301,1.406381,0.74862099,-0.117377,-0.64389902,-0.105744,-0.26951177,-1.4216483,-0.048245473
21332151588032,0.45931184,0,,0.0027969077,0.004755097,-0.0012144,9.6055126,-0.34024301,1.406381,0.74862099,-0.117377,-0.64389902,-0.105744,-0.26951177,-1.4216483,-0.048245473
21332153588960,0.46131277,0,,0.00094931947,0.0051834358,-0.00059899701,9.6905861,-0.30316901,1.412225,0.74862701,-0.117368,-0.643893,-0.105746,-0.26938132,-1.4216324,-0.048364957
21332155702592,0.4634264,0,,0.00094931947,0.0051834358,-0.00059899701,9.6905861,-0.30316901,1.412225,0.74862701,-0.117368,-0.643893,-0.105746,-0.26938132,-1.4216324,-0.048364957
21332157572768,0.46529658,0,,0.0049852363,0.0035989561,-0.00082475531,9.7228909,-0.348425,1.41791,0.74863398,-0.117352,-0.64388901,-0.105743,-0.26923876,-1.42162,-0.048481703
21332159574432,0.46729824,0,,0.0049852363,0.0035989561,-0.00082475531,9.7228909,-0.348425,1.41791,0.74863398,-0.117352,-0.64388901,-0.105743,-0.26923876,-1.42162,-0.048481703
21332161569152,0.46929296,0,,0.0049852363,0.0035989561,-0.00082475531,9.7228909,-0.348425,1.41791,0.74863398,-0.117352,-0.64388901,-0.105743,-0.26923876,-1.42162,-0.048481703
21332163611456,0.47133526,0,,0.0030036244,0.0060750897,-0.0020362233,9.7696581,-0.36630699,1.420213,0.74864298,-0.117338,-0.64388198,-0.105741,-0.26910071,-1.4215995,-0.048595237
21332165728736,0.47345254,0,,0.0030036244,0.0060750897,-0.0020362233,9.7696581,-0.36630699,1.420213,0.74864298,-0.117338,-0.64388198,-0.105741,-0.26910071,-1.4215995,-0.048595237
21332167601152,0.47532496,0,,0.0042228939,0.0064439125,-0.0051759659,9.7756901,-0.371932,1.39434,0.74865299,-0.11732,-0.64387298,-0.105745,-0.26886459,-1.4215754,-0.048812043
21332169581152,0.47730496,0,,0.0042228939,0.0064439125,-0.0051759659,9.7756901,-0.371932,1.39434,0.74865299,-0.11732,-0.64387298,-0.105745,-0.26886459,-1.4215754,-0.048812043
21332171608096,0.4793319,0,,0.0042228939,0.0064439125,-0.0051759659,9.7756901,-0.371932,1.39434,0.74865299,-0.11732,-0.64387298,-0.105745,-0.26886459,-1.4215754,-0.048812043
21332173641152,0.48136496,0,,0.0015824726,0.0014437014,-0.0041265517,9.7764997,-0.31683499,1.40703,0.74865597,-0.117304,-0.64387,-0.105753,-0.26861761,-1.421569,-0.049047887
21332175569728,0.48329354,0,,0.0015824726,0.0014437014,-0.0041265517,9.7764997,-0.31683499,1.40703,0.74865597,-0.117304,-0.64387,-0.105753,-0.26861761,-1.421569,-0.049047887
21332177589024,0.48531283,0,,0.0017427462,-0.001437907,-0.0018935601,9.6410856,-0.33516899,1.385219,0.74865401,-0.11729,-0.643875,-0.105756,-0.26845662,-1.4215846,-0.049192909
21332179554912,0.48727872,0,,0.0017427462,-0.001437907,-0.0018935601,9.6410856,-0.33516899,1.385219,0.74865401,-0.11729,-0.643875,-0.105756,-0.26845662,-1.4215846,-0.049192909
21332181550336,0.48927414,0,,0.0017427462,-0.001437907,-0.0018935601,9.6410856,-0.33516899,1.385219,0.74865401,-0.11729,-0.643875,-0.105756,-0.26845662,-1.4215846,-0.049192909
21332183590240,0.49131405,0,,-0.00057700584,0.0016012,0.0023712043,9.5917654,-0.35434899,1.352891,0.74865299,-0.117284,-0.64387697,-0.105754,-0.26842032,-1.4215886,-0.049218388
21332185670208,0.49339402,0,,-0.00057700584,0.0016012,0.0023712043,9.5917654,-0.35434899,1.352891,0.74865299,-0.117284,-0.64387697,-0.105754,-0.26842032,-1.4215886,-0.049218388
21332187557216,0.49528102,0,,0.00068767715,5.6025069e-06,0.0045960454,9.748107,-0.33284,1.4019721,0.74865198,-0.117289,-0.64387798,-0.105751,-0.26850944,-1.421591,-0.049131648
21332189553312,0.49727712,0,,0.00068767715,5.6025069e-06,0.0045960454,9.748107,-0.33284,1.4019721,0.74865198,-0.117289,-0.64387798,-0.105751,-0.26850944,-1.421591,-0.049131648
21332191585920,0.49930973,0,,0.00068767715,5.6025069e-06,0.0045960454,9.748107,-0.33284,1.4019721,0.74865198,-0.117289,-0.64387798,-0.105751,-0.26850944,-1.421591,-0.049131648
21332193545376,0.50126918,0,,0.0049780109,0.0041804126,0.0051501525,9.6623821,-0.43123099,1.396596,0.74865597,-0.117288,-0.64387602,-0.105739,-0.26858765,-1.4215802,-0.049034014
21332195618752,0.50334256,0,,0.0049780109,0.0041804126,0.0051501525,9.6623821,-0.43123099,1.396596,0.74865597,-0.117288,-0.64387602,-0.105739,-0.26858765,-1.4215802,-0.049034014
21332197616064,0.50533987,0,,0.0032421586,0.0018526844,0.0014342766,9.6799259,-0.44717601,1.393638,0.74866199,-0.117288,-0.64387,-0.105727,-0.26868909,-1.4215601,-0.04891676
21332199606048,0.50732986,0,,0.0032421586,0.0018526844,0.0014342766,9.6799259,-0.44717601,1.393638,0.74866199,-0.117288,-0.64387,-0.105727,-0.26868909,-1.4215601,-0.04891676
21332201581280,0.50930509,0,,0.0032421586,0.0018526844,0.0014342766,9.6799259,-0.44717601,1.393638,0.74866199,-0.117288,-0.64387,-0.105727,-0.26868909,-1.4215601,-0.04891676
21332203564640,0.51128845,0,,-0.0031133183,-0.0025713762,6.4926247e-05,9.7245235,-0.40795499,1.3949209,0.74865997,-0.117298,-0.64387,-0.105733,-0.26873657,-1.4215645,-0.04889161
21332205793024,0.51351683,0,,-0.0031133183,-0.0025713762,6.4926247e-05,9.7245235,-0.40795499,1.3949209,0.74865997,-0.117298,-0.64387,-0.105733,-0.26873657,-1.4215645,-0.04889161
21332207582752,0.51530656,0,,0.004830478,0.0017229716,0.0016568759,9.6591616,-0.38237199,1.373614,0.74865699,-0.117301,-0.64387298,-0.105732,-0.26877148,-1.4215706,-0.048859568
21332209570048,0.51729386,0,,0.004830478,0.0017229716,0.0016568759,9.6591616,-0.38237199,1.373614,0.74865699,-0.117301,-0.64387298,-0.105732,-0.26877148,-1.4215706,-0.048859568
21332211575360,0.51929917,0,,0.004830478,0.0017229716,0.0016568759,9.6591616,-0.38237199,1.373614,0.74865699,-0.117301,-0.64387298,-0.105732,-0.26877148,-1.4215706,-0.048859568
21332213563648,0.52128746,0,,0.003159081,0.00059540161,0.005878461,9.6009007,-0.45383,1.3657579,0.74865901,-0.117301,-0.64387202,-0.105721,-0.2688666,-1.4215641,-0.048748161
21332215564384,0.52328819,0,,0.003159081,0.00059540161,0.005878461,9.6009007,-0.45383,1.3657579,0.74865901,-0.117301,-0.64387202,-0.105721,-0.2688666,-1.4215641,-0.048748161
21332217564064,0.52528787,0,,0.0029577397,0.00076644391,0.005311473,9.6392231,-0.39058101,1.377017,0.74865901,-0.117312,-0.64387202,-0.105709,-0.26908067,-1.4215601,-0.048533244
21332219579616,0.52730342,0,,0.0029577397,0.00076644391,0.005311473,9.6392231,-0.39058101,1.377017,0.74865901,-0.117312,-0.64387202,-0.105709,-0.26908067,-1.4215601,-0.048533244
21332221631488,0.5293553,0,,0.0029577397,0.00076644391,0.005311473,9.6392231,-0.39058101,1.377017,0.74865901,-0.117312,-0.64387202,-0.105709,-0.26908067,-1.4215601,-0.048533244
21332223564672,0.53128848,0,,0.0016583769,0.0032514438,0.0059202789,9.7464304,-0.451444,1.387176,0.74866402,-0.117316,-0.64386702,-0.1057,-0.26920203,-1.4215449,-0.048405312
21332225757408,0.53348122,0,,0.0016583769,0.0032514438,0.0059202789,9.7464304,-0.451444,1.387176,0.74866402,-0.117316,-0.64386702,-0.1057,-0.26920203,-1.4215449,-0.048405312
21332227590144,0.53531395,0,,0.0012295845,0.0044932453,0.0088999223,9.7091293,-0.46598199,1.357451,0.74866998,-0.117333,-0.64385897,-0.105687,-0.26946843,-1.421521,-0.048144435
21332229552736,0.53727654,0,,0.0012295845,0.0044932453,0.0088999223,9.7091293,-0.46598199,1.357451,0.74866998,-0.117333,-0.64385897,-0.105687,-0.26946843,-1.421521,-0.048144435
21332231558336,0.53928214,0,,0.0012295845,0.0044932453,0.0088999223,9.7091293,-0.46598199,1.357451,0.74866998,-0.117333,-0.64385897,-0.105687,-0.26946843,-1.421521,-0.048144435
21332233582752,0.54130656,0,,0.0023791108,0.0047341184,0.0037441153,9.7729788,-0.45353299,1.356411,0.74867797,-0.117347,-0.64384902,-0.10568,-0.26964792,-1.4214933,-0.047974945
21332235651776,0.54337558,0,,0.0023791108,0.0047341184,0.0037441153,9.7729788,-0.45353299,1.356411,0.74867797,-0.117347,-0.64384902,-0.10568,-0.26964792,-1.4214933,-0.047974945
21332237564832,0.54528864,0,,0.0039544098,-0.00064418356,-0.00027890361,9.7620363,-0.43687201,1.336269,0.74867898,-0.117349,-0.643848,-0.105678,-0.2696882,-1.4214897,-0.047934403
21332239659872,0.54738368,0,,0.0039544098,-0.00064418356,-0.00027890361,9.7620363,-0.43687201,1.336269,0.74867898,-0.117349,-0.643848,-0.105678,-0.2696882,-1.4214897,-0.047934403
21332241594400,0.54931821,0,,0.0039544098,-0.00064418356,-0.00027890361,9.7620363,-0.43687201,1.336269,0.74867898,-0.117349,-0.643848,-0.105678,-0.2696882,-1.4214897,-0.047934403
21332243556480,0.55128029,0,,0.00054494414,-0.0012558167,-0.0034347033,9.8595943,-0.526088,1.339203,0.74867201,-0.117351,-0.64385498,-0.105681,-0.26969593,-1.4215086,-0.047933687
21332245755008,0.55347882,0,,0.00054494414,-0.0012558167,-0.0034347033,9.8595943,-0.526088,1.339203,0.74867201,-0.117351,-0.64385498,-0.105681,-0.26969593,-1.4215086,-0.047933687
21332247584864,0.55530867,0,,-0.0020982174,-0.0022626622,0.0012235805,9.578701,-0.242136,1.300199,0.74866301,-0.117364,-0.643861,-0.105694,-0.269731,-1.4215285,-0.047936146
21332249550784,0.55727459,0,,-0.0020982174,-0.0022626622,0.0012235805,9.578701,-0.242136,1.300199,0.74866301,-0.117364,-0.643861,-0.105694,-0.269731,-1.4215285,-0.047936146
21332251584960,0.55930877,0,,-0.0020982174,-0.0022626622,0.0012235805,9.578701,-0.242136,1.300199,0.74866301,-0.117364,-0.643861,-0.105694,-0.269731,-1.4215285,-0.047936146
21332253582944,0.56130675,0,,-0.0020982174,-0.0022626622,0.0012235805,9.578701,-0.242136,1.300199,0.74866301,-0.117364,-0.643861,-0.105694,-0.269731,-1.4215285,-0.047936146
21332255586720,0.56331053,0,,-0.0020982174,-0.0022626622,0.0012235805,9.578701,-0.242136,1.300199,0.74866301,-0.117364,-0.643861,-0.105694,-0.269731,-1.4215285,-0.047936146
21332257543104,0.56526691,0,,-0.0037403453,0.0014845771,0.010076188,9.6466179,-0.38166499,1.2769589,0.74865198,-0.117392,-0.64387202,-0.105672,-0.27022673,-1.4215533,-0.047448959
21332259544256,0.56726806,0,,-0.0037403453,0.0014845771,0.010076188,9.6466179,-0.38166499,1.2769589,0.74865198,-0.117392,-0.64387202,-0.105672,-0.27022673,-1.4215533,-0.047448959
21332261576096,0.5692999,0,,-0.0037403453,0.0014845771,0.010076188,9.6466179,-0.38166499,1.2769589,0.74865198,-0.117392,-0.64387202,-0.105672,-0.27022673,-1.4215533,-0.047448959
21332263574112,0.57129792,0,,-0.00092914348,0.0013997017,0.0066555511,9.7919779,-0.320292,1.269132,0.74865001,-0.117411,-0.64387202,-0.105666,-0.27047733,-1.4215521,-0.047217996
21332265852096,0.5735759,0,,-0.00092914348,0.0013997017,0.0066555511,9.7919779,-0.320292,1.269132,0.74865001,-0.117411,-0.64387202,-0.105666,-0.27047733,-1.4215521,-0.047217996
21332267609216,0.57533302,0,,-0.0003585779,-0.003933309,0.012919171,9.85462,-0.350793,1.260434,0.74864399,-0.117425,-0.643879,-0.105647,-0.27079443,-1.4215662,-0.046893365
21332269595840,0.57731965,0,,-0.0003585779,-0.003933309,0.012919171,9.85462,-0.350793,1.260434,0.74864399,-0.117425,-0.643879,-0.105647,-0.27079443,-1.4215662,-0.046893365
21332271736896,0.5794607,0,,-0.0003585779,-0.003933309,0.012919171,9.85462,-0.350793,1.260434,0.74864399,-0.117425,-0.643879,-0.105647,-0.27079443,-1.4215662,-0.046893365
21332273664960,0.58138877,0,,-0.010207227,-0.0036935181,0.0058771169,9.7324724,-0.341429,1.226036,0.748631,-0.117451,-0.64389199,-0.10564,-0.27115075,-1.4215963,-0.046563274
21332275609216,0.58333302,0,,-0.010207227,-0.0036935181,0.0058771169,9.7324724,-0.341429,1.226036,0.748631,-0.117451,-0.64389199,-0.10564,-0.27115075,-1.4215963,-0.046563274
21332277594016,0.58531782,0,,-0.0085444512,0.0014920995,0.0014281331,9.7883167,-0.27641201,1.243515,0.74862099,-0.117472,-0.643897,-0.105654,-0.27126045,-1.4216159,-0.046504439
21332279569696,0.5872935,0,,-0.0085444512,0.0014920995,0.0014281331,9.7883167,-0.27641201,1.243515,0.74862099,-0.117472,-0.643897,-0.105654,-0.27126045,-1.4216159,-0.046504439
21332281557760,0.58928157,0,,-0.0085444512,0.0014920995,0.0014281331,9.7883167,-0.27641201,1.243515,0.74862099,-0.117472,-0.643897,-0.105654,-0.27126045,-1.4216159,-0.046504439
21332283592576,0.59131638,0,,-0.0070238507,-0.002197387,0.005521419,9.7730865,-0.295616,1.1877789,0.74861002,-0.117484,-0.64390701,-0.105659,-0.27135592,-1.4216452,-0.046432759
21332285725888,0.5934497,0,,-0.0070238507,-0.002197387,0.005521419,9.7730865,-0.295616,1.1877789,0.74861002,-0.117484,-0.64390701,-0.105659,-0.27135592,-1.4216452,-0.046432759
21332287558304,0.59528211,0,,-0.00077860882,-0.0047240301,0.0047472084,9.8089514,-0.236012,1.172296,0.74859399,-0.117495,-0.64392298,-0.105657,-0.27151916,-1.4216882,-0.046281595
21332289588768,0.59731258,0,,-0.00077860882,-0.0047240301,0.0047472084,9.8089514,-0.236012,1.172296,0.74859399,-0.117495,-0.64392298,-0.105657,-0.27151916,-1.4216882,-0.046281595
21332291555520,0.59927933,0,,-0.00077860882,-0.0047240301,0.0047472084,9.8089514,-0.236012,1.172296,0.74859399,-0.117495,-0.64392298,-0.105657,-0.27151916,-1.4216882,-0.046281595
21332293548672,0.60127248,0,,0.003052284,0.00090826933,0.0083173491,9.8057423,-0.32216901,1.156098,0.74858397,-0.117494,-0.643938,-0.105641,-0.27166983,-1.4217211,-0.046106521
21332295583200,0.60330701,0,,0.003052284,0.00090826933,0.0083173491,9.8057423,-0.32216901,1.156098,0.74858397,-0.117494,-0.643938,-0.105641,-0.27166983,-1.4217211,-0.046106521
21332297578048,0.60530186,0,,0.0001905725,0.0019419405,0.010005152,9.7742014,-0.32436499,1.152866,0.74857801,-0.117504,-0.64394498,-0.105624,-0.27193327,-1.4217331,-0.045831979
21332299567680,0.60729149,0,,0.0001905725,0.0019419405,0.010005152,9.7742014,-0.32436499,1.152866,0.74857801,-0.117504,-0.64394498,-0.105624,-0.27193327,-1.4217331,-0.045831979
21332301583776,0.60930758,0,,0.0001905725,0.0019419405,0.010005152,9.7742014,-0.32436499,1.152866,0.74857801,-0.117504,-0.64394498,-0.105624,-0.27193327,-1.4217331,-0.045831979
21332303581792,0.6113056,0,,-0.0061135916,-0.0029055194,0.009384007,9.6807289,-0.32198399,1.123184,0.74856699,-0.117525,-0.64395601,-0.105615,-0.27225403,-1.4217616,-0.045529652
21332305840864,0.61356467,0,,-0.0061135916,-0.0029055194,0.009384007,9.6807289,-0.32198399,1.123184,0.74856699,-0.117525,-0.64395601,-0.105615,-0.27225403,-1.4217616,-0.045529652
21332307555584,0.61527939,0,,-9.9448862e-05,0.0052317815,0.0092699322,9.6732111,-0.39269301,1.128186,0.74855798,-0.117545,-0.64396501,-0.105605,-0.27256195,-1.4217807,-0.045235131
21332309576096,0.6172999,0,,-9.9448862e-05,0.0052317815,0.0092699322,9.6732111,-0.39269301,1.128186,0.74855798,-0.117545,-0.64396501,-0.105605,-0.27256195,-1.4217807,-0.045235131
21332311579424,0.61930323,0,,-9.9448862e-05,0.0052317815,0.0092699322,9.6732111,-0.39269301,1.128186,0.74855798,-0.117545,-0.64396501,-0.105605,-0.27256195,-1.4217807,-0.045235131
21332313536672,0.62126048,0,,-0.0011658276,0.0041293093,0.002206358,9.743082,-0.379327,1.142633,0.74855602,-0.117559,-0.64396501,-0.1056,-0.272755,-1.4217833,-0.045055309
21332315562336,0.62328614,0,,-0.0011658276,0.0041293093,0.002206358,9.743082,-0.379327,1.142633,0.74855602,-0.117559,-0.64396501,-0.1056,-0.272755,-1.4217833,-0.045055309
21332317618272,0.62534208,0,,-0.0024185201,-0.0022150148,0.0018066077,9.7748165,-0.44820699,1.160903,0.74854398,-0.117572,-0.64397502,-0.105606,-0.27284868,-1.4218106,-0.044988235
21332319582272,0.62730608,0,,-0.0024185201,-0.0022150148,0.0018066077,9.7748165,-0.44820699,1.160903,0.74854398,-0.117572,-0.64397502,-0.105606,-0.27284868,-1.4218106,-0.044988235
21332321659744,0.62938355,0,,-0.0024185201,-0.0022150148,0.0018066077,9.7748165,-0.44820699,1.160903,0.74854398,-0.117572,-0.64397502,-0.105606,-0.27284868,-1.4218106,-0.044988235
21332323590880,0.63131469,0,,0.00024090779,0.00063735934,0.0020193285,9.7821226,-0.45586401,1.17272,0.748532,-0.117589,-0.64398599,-0.10561,-0.27301814,-1.4218423,-0.044849638
21332325736704,0.63346051,0,,0.00024090779,0.00063735934,0.0020193285,9.7821226,-0.45586401,1.17272,0.748532,-0.117589,-0.64398599,-0.10561,-0.27301814,-1.4218423,-0.044849638
21332327572576,0.63529638,0,,0.0029741457,-0.00016582373,-0.00010238101,9.7810154,-0.43685099,1.211004,0.74852198,-0.117601,-0.64399397,-0.105615,-0.27310799,-1.4218652,-0.044782756
21332329573568,0.63729738,0,,0.0029741457,-0.00016582373,-0.00010238101,9.7810154,-0.43685099,1.211004,0.74852198,-0.117601,-0.64399397,-0.105615,-0.27310799,-1.4218652,-0.044782756
21332331571424,0.63929523,0,,0.0029741457,-0.00016582373,-0.00010238101,9.7810154,-0.43685099,1.211004,0.74852198,-0.117601,-0.64399397,-0.105615,-0.27310799,-1.4218652,-0.044782756
21332333588896,0.6413127,0,,0.0005232148,-0.0024266708,0.0036862227,9.767252,-0.41462001,1.239696,0.74851,-0.117607,-0.64400703,-0.105615,-0.27320487,-1.4218989,-0.04469448
21332335598144,0.64332195,0,,0.0005232148,-0.0024266708,0.0036862227,9.767252,-0.41462001,1.239696,0.74851,-0.117607,-0.64400703,-0.105615,-0.27320487,-1.4218989,-0.04469448
21332337563680,0.64528749,0,,-0.0036607409,0.00040493384,0.0048193775,9.7293062,-0.47090799,1.2885571,0.74849999,-0.117626,-0.64401501,-0.105616,-0.27340356,-1.4219216,-0.044523435
21332339778592,0.6475024,0,,-0.0036607409,0.00040493384,0.0048193775,9.7293062,-0.47090799,1.2885571,0.74849999,-0.117626,-0.64401501,-0.105616,-0.27340356,-1.4219216,-0.044523435
21332341628896,0.6493527,0,,-0.0036607409,0.00040493384,0.0048193775,9.7293062,-0.47090799,1.2885571,0.74849999,-0.117626,-0.64401501,-0.105616,-0.27340356,-1.4219216,-0.044523435
21332343632128,0.65135594,0,,-0.001934296,5.9114301e-05,0.0058254376,9.7371807,-0.51902801,1.3197531,0.748496,-0.117651,-0.64401501,-0.105616,-0.27366627,-1.4219247,-0.0442967
21332345649312,0.65337312,0,,-0.001934296,5.9114301e-05,0.0058254376,9.7371807,-0.51902801,1.3197531,0.748496,-0.117651,-0.64401501,-0.105616,-0.27366627,-1.4219247,-0.0442967
21332347554624,0.65527843,0,,0.002413773,0.0035310803,0.0023414291,9.72859,-0.46173301,1.3472461,0.74849498,-0.117672,-0.64401299,-0.105617,-0.27386945,-1.421919,-0.044125292
21332349552320,0.65727613,0,,0.002413773,0.0035310803,0.0023414291,9.72859,-0.46173301,1.3472461,0.74849498,-0.117672,-0.64401299,-0.105617,-0.27386945,-1.421919,-0.044125292
21332351613952,0.65933776,0,,0.002413773,0.0035310803,0.0023414291,9.72859,-0.46173301,1.3472461,0.74849498,-0.117672,-0.64401299,-0.105617,-0.27386945,-1.421919,-0.044125292
21332353579264,0.66130307,0,,-0.0038377348,-0.0020457004,0.0004478515,9.7679844,-0.52524197,1.409996,0.74849302,-0.117682,-0.64401299,-0.10562,-0.27394999,-1.4219206,-0.04406391
21332355575712,0.66329952,0,,-0.0038377348,-0.0020457004,0.0004478515,9.7679844,-0.52524197,1.409996,0.74849302,-0.117682,-0.64401299,-0.10562,-0.27394999,-1.4219206,-0.04406391
21332357544928,0.66526874,0,,-9.1717056e-05,-0.001599315,-0.003858696,9.7104731,-0.46335799,1.421628,0.74848402,-0.117702,-0.64401698,-0.105634,-0.27403818,-1.4219395,-0.044024308
21332359576512,0.66730032,0,,-9.1717056e-05,-0.001599315,-0.003858696,9.7104731,-0.46335799,1.421628,0.74848402,-0.117702,-0.64401698,-0.105634,-0.27403818,-1.4219395,-0.044024308
21332361545472,0.66926928,0,,-9.1717056e-05,-0.001599315,-0.003858696,9.7104731,-0.46335799,1.421628,0.74848402,-0.117702,-0.64401698,-0.105634,-0.27403818,-1.4219395,-0.044024308
21332363536736,0.67126054,0,,0.0018871895,0.0040300176,-0.0028480981,9.6519403,-0.44135499,1.444327,0.74848497,-0.1177,-0.64401603,-0.105641,-0.27395229,-1.4219371,-0.044116687
21332365733472,0.67345728,0,,0.0018871895,0.0040300176,-0.0028480981,9.6519403,-0.44135499,1.444327,0.74848497,-0.1177,-0.64401603,-0.105641,-0.27395229,-1.4219371,-0.044116687
21332367609344,0.67533315,0,,0.0024024805,0.0057817524,-0.0056039905,9.6946316,-0.42000899,1.511055,0.74849302,-0.11769,-0.64400601,-0.105651,-0.27374049,-1.4219138,-0.044329024
21332369576864,0.67730067,0,,0.0024024805,0.0057817524,-0.0056039905,9.6946316,-0.42000899,1.511055,0.74849302,-0.11769,-0.64400601,-0.105651,-0.27374049,-1.4219138,-0.044329024
21332371548512,0.67927232,0,,0.0024024805,0.0057817524,-0.0056039905,9.6946316,-0.42000899,1.511055,0.74849302,-0.11769,-0.64400601,-0.105651,-0.27374049,-1.4219138,-0.044329024
21332373597696,0.6813215,0,,-0.0015258715,0.0033786781,-0.0026827106,9.73808,-0.44374201,1.561161,0.74850202,-0.11768,-0.643996,-0.105661,-0.2735408,-1.4218913,-0.044529526
21332375585440,0.68330925,0,,-0.0015258715,0.0033786781,-0.0026827106,9.73808,-0.44374201,1.561161,0.74850202,-0.11768,-0.643996,-0.105661,-0.2735408,-1.4218913,-0.044529526
21332377593536,0.68531734,0,,-0.0033177312,0.0012947551,-0.0028269796,9.7787094,-0.366292,1.598561,0.74851102,-0.117682,-0.64398301,-0.105674,-0.27342449,-1.4218632,-0.04466608
21332379579136,0.68730294,0,,-0.0033177312,0.0012947551,-0.0028269796,9.7787094,-0.366292,1.598561,0.74851102,-0.117682,-0.64398301,-0.105674,-0.27342449,-1.4218632,-0.04466608
21332381570880,0.68929469,0,,-0.0033177312,0.0012947551,-0.0028269796,9.7787094,-0.366292,1.598561,0.74851102,-0.117682,-0.64398301,-0.105674,-0.27342449,-1.4218632,-0.04466608
21332383574720,0.69129853,0,,-0.0010881081,0.0010788404,0.0031482772,9.6634588,-0.33061701,1.632094,0.74851698,-0.117677,-0.64397699,-0.105676,-0.27334459,-1.4218467,-0.044743591
21332385646016,0.69336982,0,,-0.0010881081,0.0010788404,0.0031482772,9.6634588,-0.33061701,1.632094,0.74851698,-0.117677,-0.64397699,-0.105676,-0.27334459,-1.4218467,-0.044743591
21332387593888,0.6953177,0,,0.00122941,0.0022675667,-0.0014710333,9.6595144,-0.40179899,1.65198,0.74852997,-0.117669,-0.64396298,-0.105673,-0.27325374,-1.4218092,-0.044818866
21332389562400,0.69728621,0,,0.00122941,0.0022675667,-0.0014710333,9.6595144,-0.40179899,1.65198,0.74852997,-0.117669,-0.64396298,-0.105673,-0.27325374,-1.4218092,-0.044818866
21332391554432,0.69927824,0,,0.00122941,0.0022675667,-0.0014710333,9.6595144,-0.40179899,1.65198,0.74852997,-0.117669,-0.64396298,-0.105673,-0.27325374,-1.4218092,-0.044818866
21332393566432,0.70129024,0,,0.001178167,-0.00066605256,-0.00063296109,9.73773,-0.37617201,1.687004,0.74853998,-0.117659,-0.64395303,-0.105674,-0.2731214,-1.4217833,-0.044937814
21332395583392,0.7033072,0,,0.001178167,-0.00066605256,-0.00063296109,9.73773,-0.37617201,1.687004,0.74853998,-0.117659,-0.64395303,-0.105674,-0.2731214,-1.4217833,-0.044937814
21332397673152,0.70539696,0,,0.00082499971,0.00099672263,0.0012010483,9.6395235,-0.32038099,1.688326,0.74854898,-0.117653,-0.64394403,-0.105671,-0.27306681,-1.4217572,-0.044979438
21332399632288,0.7073561,0,,0.00082499971,0.00099672263,0.0012010483,9.6395235,-0.32038099,1.688326,0.74854898,-0.117653,-0.64394403,-0.105671,-0.27306681,-1.4217572,-0.044979438
21332401754144,0.70947795,0,,0.00082499971,0.00099672263,0.0012010483,9.6395235,-0.32038099,1.688326,0.74854898,-0.117653,-0.64394403,-0.105671,-0.27306681,-1.4217572,-0.044979438
21332403592384,0.71131619,0,,0.00019971803,0.0035300156,-0.00037514106,9.630621,-0.360697,1.695979,0.74856502,-0.117637,-0.643929,-0.105667,-0.27290369,-1.4217167,-0.045114927
21332405940768,0.71366458,0,,0.00019971803,0.0035300156,-0.00037514106,9.630621,-0.360697,1.695979,0.74856502,-0.117637,-0.643929,-0.105667,-0.27290369,-1.4217167,-0.045114927
21332407588128,0.71531194,0,,-0.0049844685,0.0032682862,-0.0031130215,9.62292,-0.36096001,1.711719,0.74858099,-0.117627,-0.643911,-0.105674,-0.27270926,-1.4216709,-0.045305659
21332409615968,0.71733978,0,,-0.0049844685,0.0032682862,-0.0031130215,9.62292,-0.36096001,1.711719,0.74858099,-0.117627,-0.643911,-0.105674,-0.27270926,-1.4216709,-0.045305659
21332411592320,0.71931613,0,,-0.0049844685,0.0032682862,-0.0031130215,9.62292,-0.36096001,1.711719,0.74858099,-0.117627,-0.643911,-0.105674,-0.27270926,-1.4216709,-0.045305659
21332413593248,0.72131706,0,,-0.0048022386,-0.0011818322,-0.0023181637,9.6654272,-0.369973,1.730108,0.74859399,-0.117622,-0.64389598,-0.105685,-0.27253576,-1.4216344,-0.045489371
21332415588320,0.72331213,0,,-0.0048022386,-0.0011818322,-0.0023181637,9.6654272,-0.369973,1.730108,0.74859399,-0.117622,-0.64389598,-0.105685,-0.27253576,-1.4216344,-0.045489371
21332417554208,0.72527802,0,,0.0030186166,-0.00025268877,-0.0042080762,9.6355848,-0.32592201,1.7059391,0.74860299,-0.117609,-0.64388698,-0.10569,-0.27234401,-1.4216111,-0.045668477
21332419589408,0.72731322,0,,0.0030186166,-0.00025268877,-0.0042080762,9.6355848,-0.32592201,1.7059391,0.74860299,-0.117609,-0.64388698,-0.10569,-0.27234401,-1.4216111,-0.045668477
21332421683648,0.72940746,0,,0.0030186166,-0.00025268877,-0.0042080762,9.6355848,-0.32592201,1.7059391,0.74860299,-0.117609,-0.64388698,-0.10569,-0.27234401,-1.4216111,-0.045668477
21332423598848,0.73132266,0,,0.0029009465,0.0030655312,-0.00059854324,9.6440458,-0.39052099,1.6830829,0.74861699,-0.117586,-0.643875,-0.105686,-0.27211448,-1.421577,-0.045860724
21332425783840,0.73350765,0,,0.0029009465,0.0030655312,-0.00059854324,9.6440458,-0.39052099,1.6830829,0.74861699,-0.117586,-0.643875,-0.105686,-0.27211448,-1.421577,-0.045860724
21332427540352,0.73526416,0,,0.000658216,0.00053869588,0.00067811279,9.7067919,-0.38988501,1.681639,0.74863201,-0.117576,-0.64385897,-0.105683,-0.27201048,-1.4215349,-0.045945463
21332429574432,0.73729824,0,,0.000658216,0.00053869588,0.00067811279,9.7067919,-0.38988501,1.681639,0.74863201,-0.117576,-0.64385897,-0.105683,-0.27201048,-1.4215349,-0.045945463
21332431584512,0.73930832,0,,0.000658216,0.00053869588,0.00067811279,9.7067919,-0.38988501,1.681639,0.74863201,-0.117576,-0.64385897,-0.105683,-0.27201048,-1.4215349,-0.045945463
21332433583200,0.74130701,0,,-0.0018019129,-0.0016006415,0.0019749099,9.6764326,-0.36609599,1.648052,0.74863899,-0.117574,-0.643852,-0.105682,-0.27197208,-1.4215156,-0.045980383
21332435614560,0.74333837,0,,-0.0018019129,-0.0016006415,0.0019749099,9.6764326,-0.36609599,1.648052,0.74863899,-0.117574,-0.643852,-0.105682,-0.27197208,-1.4215156,-0.045980383
21332437628416,0.74535222,0,,-0.001714402,-0.000531924,0.0047739295,9.6407137,-0.44405401,1.597849,0.748649,-0.117576,-0.64384097,-0.105678,-0.27201088,-1.4214845,-0.045937536
21332439661984,0.74738579,0,,-0.001714402,-0.000531924,0.0047739295,9.6407137,-0.44405401,1.597849,0.748649,-0.117576,-0.64384097,-0.105678,-0.27201088,-1.4214845,-0.045937536
21332441600864,0.74932467,0,,-0.001714402,-0.000531924,0.0047739295,9.6407137,-0.44405401,1.597849,0.748649,-0.117576,-0.64384097,-0.105678,-0.27201088,-1.4214845,-0.045937536
21332443603680,0.75132749,0,,-0.0038266343,-0.00074197436,0.002514461,9.6171026,-0.43929499,1.568711,0.74865502,-0.117589,-0.64383203,-0.105676,-0.27215396,-1.4214628,-0.045811822
21332445770784,0.75349459,0,,-0.0038266343,-0.00074197436,0.002514461,9.6171026,-0.43929499,1.568711,0.74865502,-0.117589,-0.64383203,-0.105676,-0.27215396,-1.4214628,-0.045811822
21332447585344,0.75530915,0,,0.0012034569,0.0042164188,-0.0026276979,9.7406054,-0.49055901,1.5454119,0.74866301,-0.117591,-0.643821,-0.105683,-0.27209187,-1.4214364,-0.045887655
21332449564576,0.75728838,0,,0.0012034569,0.0042164188,-0.0026276979,9.7406054,-0.49055901,1.5454119,0.74866301,-0.117591,-0.643821,-0.105683,-0.27209187,-1.4214364,-0.045887655
21332451628896,0.7593527,0,,0.0012034569,0.0042164188,-0.0026276979,9.7406054,-0.49055901,1.5454119,0.74866301,-0.117591,-0.643821,-0.105683,-0.27209187,-1.4214364,-0.045887655
21332453559488,0.7612833,0,,0.0068432613,0.0087523895,0.00036658897,9.6919966,-0.43036601,1.48743,0.74867702,-0.117589,-0.64380503,-0.105684,-0.27202807,-1.4213935,-0.045949928
21332455573152,0.76329696,0,,0.0068432613,0.0087523895,0.00036658897,9.6919966,-0.43036601,1.48743,0.74867702,-0.117589,-0.64380503,-0.105684,-0.27202807,-1.4213935,-0.045949928
21332457590080,0.76531389,0,,0.001948922,0.0045526739,0.00081039127,9.6737022,-0.467107,1.43278,0.748694,-0.11758,-0.64378798,-0.105676,-0.27196582,-1.4213467,-0.045988764
21332459590336,0.76731414,0,,0.001948922,0.0045526739,0.00081039127,9.6737022,-0.467107,1.43278,0.748694,-0.11758,-0.64378798,-0.105676,-0.27196582,-1.4213467,-0.045988764
21332461554912,0.76927872,0,,0.001948922,0.0045526739,0.00081039127,9.6737022,-0.467107,1.43278,0.748694,-0.11758,-0.64378798,-0.105676,-0.27196582,-1.4213467,-0.045988764
21332463587328,0.77131114,0,,-0.00044907323,0.0015447909,-0.0010009289,9.6836214,-0.46139801,1.38396,0.74869698,-0.117585,-0.64378297,-0.105684,-0.27194412,-1.4213347,-0.046029361
21332465837792,0.7735616,0,,-0.00044907323,0.0015447909,-0.0010009289,9.6836214,-0.46139801,1.38396,0.74869698,-0.117585,-0.64378297,-0.105684,-0.27194412,-1.4213347,-0.046029361
21332467577504,0.77530131,0,,0.0036041399,-0.0014001555,0.001396054,9.763628,-0.442146,1.349244,0.74869597,-0.11759,-0.64378202,-0.105686,-0.27197471,-1.4213359,-0.046009391
21332469546304,0.77727011,0,,0.0036041399,-0.0014001555,0.001396054,9.763628,-0.442146,1.349244,0.74869597,-0.11759,-0.64378202,-0.105686,-0.27197471,-1.4213359,-0.046009391
21332471589184,0.77931299,0,,0.0036041399,-0.0014001555,0.001396054,9.763628,-0.442146,1.349244,0.74869597,-0.11759,-0.64378202,-0.105686,-0.27197471,-1.4213359,-0.046009391
21332473573792,0.7812976,0,,0.0059577686,-0.00044395939,0.0022628719,9.825531,-0.46884301,1.2976199,0.74869198,-0.11759,-0.64378899,-0.105677,-0.27205873,-1.4213498,-0.045911129
21332475569280,0.78329309,0,,0.0059577686,-0.00044395939,0.0022628719,9.825531,-0.46884301,1.2976199,0.74869198,-0.11759,-0.64378899,-0.105677,-0.27205873,-1.4213498,-0.045911129
21332477579392,0.7853032,0,,-0.0003506192,0.00093268648,0.0020458051,9.7366781,-0.42751601,1.24084,0.74868602,-0.1176,-0.643794,-0.105677,-0.27217431,-1.4213634,-0.045808664
21332479581280,0.78730509,0,,-0.0003506192,0.00093268648,0.0020458051,9.7366781,-0.42751601,1.24084,0.74868602,-0.1176,-0.643794,-0.105677,-0.27217431,-1.4213634,-0.045808664
21332481534752,0.78925856,0,,-0.0003506192,0.00093268648,0.0020458051,9.7366781,-0.42751601,1.24084,0.74868602,-0.1176,-0.643794,-0.105677,-0.27217431,-1.4213634,-0.045808664
21332483547264,0.79127107,0,,-0.00010499901,-0.0025103245,0.0012664633,9.7358189,-0.44301,1.2068549,0.74867797,-0.11761,-0.64380097,-0.105678,-0.27227911,-1.4213823,-0.045720629
21332485750624,0.79347443,0,,-0.00010499901,-0.0025103245,0.0012664633,9.7358189,-0.44301,1.2068549,0.74867797,-0.11761,-0.64380097,-0.105678,-0.27227911,-1.4213823,-0.045720629
21332487581184,0.79530499,0,,-0.00072268849,-0.0037625109,-0.00056613246,9.720849,-0.417647,1.157042,0.74866199,-0.117623,-0.64381599,-0.10568,-0.27243477,-1.421424,-0.045586394
21332489575840,0.79729965,0,,-0.00072268849,-0.0037625109,-0.00056613246,9.720849,-0.417647,1.157042,0.74866199,-0.117623,-0.64381599,-0.10568,-0.27243477,-1.421424,-0.045586394
21332491596320,0.79932013,0,,-0.00072268849,-0.0037625109,-0.00056613246,9.720849,-0.417647,1.157042,0.74866199,-0.117623,-0.64381599,-0.10568,-0.27243477,-1.421424,-0.045586394
21332493567264,0.80129107,0,,0.0024343503,0.0017064258,-0.0022597824,9.7753716,-0.40802899,1.115922,0.748649,-0.117631,-0.64382899,-0.105689,-0.27245743,-1.4214608,-0.045586568
21332495579072,0.80330288,0,,0.0024343503,0.0017064258,-0.0022597824,9.7753716,-0.40802899,1.115922,0.748649,-0.117631,-0.64382899,-0.105689,-0.27245743,-1.4214608,-0.045586568
21332497564256,0.80528806,0,,0.0066393896,0.0052598113,-0.00057063538,9.7790899,-0.35912201,1.091437,0.74864399,-0.117625,-0.64383602,-0.105693,-0.27238386,-1.4214791,-0.045658178
21332499568000,0.80729181,0,,0.0066393896,0.0052598113,-0.00057063538,9.7790899,-0.35912201,1.091437,0.74864399,-0.117625,-0.64383602,-0.105693,-0.27238386,-1.4214791,-0.045658178
21332501599360,0.80932317,0,,0.0066393896,0.0052598113,-0.00057063538,9.7790899,-0.35912201,1.091437,0.74864399,-0.117625,-0.64383602,-0.105693,-0.27238386,-1.4214791,-0.045658178
21332503563136,0.81128694,0,,0.0093555403,0.0070300987,-0.0010134952,9.723196,-0.345568,1.060788,0.74864101,-0.117611,-0.643843,-0.105689,-0.27228404,-1.4214953,-0.045731432
21332505771552,0.81349536,0,,0.0093555403,0.0070300987,-0.0010134952,9.723196,-0.345568,1.060788,0.74864101,-0.117611,-0.643843,-0.105689,-0.27228404,-1.4214953,-0.045731432
21332507605728,0.81532954,0,,0.0096186138,0.0046114216,0.00025054202,9.7245808,-0.30491999,1.0540709,0.74863797,-0.117593,-0.64384997,-0.105682,-0.27216752,-1.4215092,-0.045812134
21332509559424,0.81728323,0,,0.0096186138,0.0046114216,0.00025054202,9.7245808,-0.30491999,1.0540709,0.74863797,-0.117593,-0.64384997,-0.105682,-0.27216752,-1.4215092,-0.045812134
21332511555104,0.81927891,0,,0.0096186138,0.0046114216,0.00025054202,9.7245808,-0.30491999,1.0540709,0.74863797,-0.117593,-0.64384997,-0.105682,-0.27216752,-1.4215092,-0.045812134
21332513592512,0.82131632,0,,0.0022397809,0.0013305343,0.00097820469,9.7055063,-0.25487599,1.044374,0.74862999,-0.11758,-0.64386302,-0.105677,-0.27210138,-1.4215412,-0.045851528
21332515554848,0.82327866,0,,0.0022397809,0.0013305343,0.00097820469,9.7055063,-0.25487599,1.044374,0.74862999,-0.11758,-0.64386302,-0.105677,-0.27210138,-1.4215412,-0.045851528
21332517614784,0.82533859,0,,0.0013727188,-0.00010032153,0.004937781,9.765748,-0.28096399,1.036267,0.74861699,-0.117577,-0.643879,-0.105671,-0.27215717,-1.421583,-0.045782569
21332519589856,0.82731366,0,,0.0013727188,-0.00010032153,0.004937781,9.765748,-0.28096399,1.036267,0.74861699,-0.117577,-0.643879,-0.105671,-0.27215717,-1.421583,-0.045782569
21332521651392,0.8293752,0,,0.0013727188,-0.00010032153,0.004937781,9.765748,-0.28096399,1.036267,0.74861699,-0.117577,-0.643879,-0.105671,-0.27215717,-1.421583,-0.045782569
21332523562464,0.83128627,0,,-0.0041160973,0.001778508,0.0026611908,9.7788248,-0.26989999,1.040882,0.74860197,-0.11758,-0.64389598,-0.105667,-0.2722585,-1.4216271,-0.045679646
21332525718848,0.83344266,0,,-0.0041160973,0.001778508,0.0026611908,9.7788248,-0.26989999,1.040882,0.74860197,-0.11758,-0.64389598,-0.105667,-0.2722585,-1.4216271,-0.045679646
21332527616928,0.83534074,0,,-0.0021508216,-0.0032428566,0.0018837514,9.8240547,-0.30307999,1.0720609,0.748586,-0.117585,-0.64391398,-0.105672,-0.27230801,-1.4216736,-0.04564371
21332529559488,0.8372833,0,,-0.0021508216,-0.0032428566,0.0018837514,9.8240547,-0.30307999,1.0720609,0.748586,-0.117585,-0.64391398,-0.105672,-0.27230801,-1.4216736,-0.04564371
21332531559616,0.83928342,0,,-0.0021508216,-0.0032428566,0.0018837514,9.8240547,-0.30307999,1.0720609,0.748586,-0.117585,-0.64391398,-0.105672,-0.27230801,-1.4216736,-0.04564371
21332533585920,0.84130973,0,,-0.0072759808,-0.0060270061,0.0019400208,9.822753,-0.26379299,1.0921741,0.74856198,-0.117596,-0.64393902,-0.105675,-0.27243314,-1.4217419,-0.04553735
21332535591488,0.8433153,0,,-0.0072759808,-0.0060270061,0.0019400208,9.822753,-0.26379299,1.0921741,0.74856198,-0.117596,-0.64393902,-0.105675,-0.27243314,-1.4217419,-0.04553735
21332537548416,0.84527222,0,,0.00071607369,-0.0065299576,-0.00017407914,9.736125,-0.236366,1.098969,0.74853802,-0.117598,-0.64396602,-0.105679,-0.27248253,-1.4218138,-0.04549677
21332539635392,0.8473592,0,,0.00071607369,-0.0065299576,-0.00017407914,9.736125,-0.236366,1.098969,0.74853802,-0.117598,-0.64396602,-0.105679,-0.27248253,-1.4218138,-0.04549677
21332541646592,0.8493704,0,,0.00071607369,-0.0065299576,-0.00017407914,9.736125,-0.236366,1.098969,0.74853802,-0.117598,-0.64396602,-0.105679,-0.27248253,-1.4218138,-0.04549677
21332543644800,0.85136861,0,,0.0080143074,-0.0028294755,-0.0015059922,9.7234249,-0.29117501,1.1572829,0.74851698,-0.11758,-0.64399397,-0.105672,-0.27240769,-1.4218849,-0.045534524
21332545636800,0.85336061,0,,0.0080143074,-0.0028294755,-0.0015059922,9.7234249,-0.29117501,1.1572829,0.74851698,-0.11758,-0.64399397,-0.105672,-0.27240769,-1.4218849,-0.045534524
21332547568960,0.85529277,0,,0.0013490872,-4.7455502e-05,0.00096659822,9.747201,-0.26494899,1.205747,0.74850601,-0.117567,-0.64401102,-0.105668,-0.27234246,-1.4219271,-0.045574509
21332549556576,0.85728038,0,,0.0013490872,-4.7455502e-05,0.00096659822,9.747201,-0.26494899,1.205747,0.74850601,-0.117567,-0.64401102,-0.105668,-0.27234246,-1.4219271,-0.045574509
21332551587168,0.85931098,0,,0.0013490872,-4.7455502e-05,0.00096659822,9.747201,-0.26494899,1.205747,0.74850601,-0.117567,-0.64401102,-0.105668,-0.27234246,-1.4219271,-0.045574509
21332553577600,0.86130141,0,,0.0024105616,0.004264136,0.0032995799,9.7223244,-0.29536501,1.241153,0.74850202,-0.117556,-0.64401799,-0.105664,-0.27228057,-1.4219435,-0.045614981
21332556437632,0.86416144,0,,0.0024105616,0.004264136,0.0032995799,9.7223244,-0.29536501,1.241153,0.74850202,-0.117556,-0.64401799,-0.105664,-0.27228057,-1.4219435,-0.045614981
21332557575136,0.86529894,0,,0.0019376297,0.0054554106,0.0012502666,9.7174988,-0.373128,1.297892,0.74850297,-0.11755,-0.64401901,-0.105659,-0.27226744,-1.421942,-0.045612314
21332559593312,0.86731712,0,,0.0019376297,0.0054554106,0.0012502666,9.7174988,-0.373128,1.297892,0.74850297,-0.11755,-0.64401901,-0.105659,-0.27226744,-1.421942,-0.045612314
21332561560736,0.86928454,0,,0.0019376297,0.0054554106,0.0012502666,9.7174988,-0.373128,1.297892,0.74850297,-0.11755,-0.64401901,-0.105659,-0.27226744,-1.421942,-0.045612314
21332563591808,0.87131562,0,,0.0019376297,0.0054554106,0.0012502666,9.7174988,-0.373128,1.297892,0.74850297,-0.11755,-0.64401901,-0.105659,-0.27226744,-1.421942,-0.045612314
21332565727264,0.87345107,0,,0.0019376297,0.0054554106,0.0012502666,9.7174988,-0.373128,1.297892,0.74850297,-0.11755,-0.64401901,-0.105659,-0.27226744,-1.421942,-0.045612314
21332567553408,0.87527722,0,,-0.0011735768,-0.0025688977,0.0042175008,9.7380066,-0.40467301,1.419608,0.74849999,-0.117553,-0.644023,-0.105648,-0.2723887,-1.4219508,-0.045479039
21332569580736,0.87730454,0,,-0.0011735768,-0.0025688977,0.0042175008,9.7380066,-0.40467301,1.419608,0.74849999,-0.117553,-0.644023,-0.105648,-0.2723887,-1.4219508,-0.045479039
21332571551680,0.87927549,0,,-0.0011735768,-0.0025688977,0.0042175008,9.7380066,-0.40467301,1.419608,0.74849999,-0.117553,-0.644023,-0.105648,-0.2723887,-1.4219508,-0.045479039
21332573571904,0.88129571,0,,-0.0042678186,-0.0013993527,0.0046855282,9.6699772,-0.444471,1.4762959,0.74849802,-0.117567,-0.64402401,-0.105644,-0.27257296,-1.421954,-0.045309812
21332575607904,0.88333171,0,,-0.0042678186,-0.0013993527,0.0046855282,9.6699772,-0.444471,1.4762959,0.74849802,-0.117567,-0.64402401,-0.105644,-0.27257296,-1.421954,-0.045309812
21332577577088,0.8853009,0,,0.0014355333,-0.00030820768,-0.00045753806,9.6869783,-0.52343601,1.50146,0.74849898,-0.117577,-0.64402097,-0.105647,-0.2726519,-1.4219464,-0.045248917
21332579547008,0.88727082,0,,0.0014355333,-0.00030820768,-0.00045753806,9.6869783,-0.52343601,1.50146,0.74849898,-0.117577,-0.64402097,-0.105647,-0.2726519,-1.4219464,-0.045248917
21332581540000,0.88926381,0,,0.0014355333,-0.00030820768,-0.00045753806,9.6869783,-0.52343601,1.50146,0.74849898,-0.117577,-0.64402097,-0.105647,-0.2726519,-1.4219464,-0.045248917
21332583572224,0.89129603,0,,0.0020041441,0.0031289214,-0.0045157948,9.808651,-0.52197802,1.556584,0.748505,-0.117578,-0.64401299,-0.105651,-0.27260578,-1.4219254,-0.045304211
21332585747424,0.89347123,0,,0.0020041441,0.0031289214,-0.0045157948,9.808651,-0.52197802,1.556584,0.748505,-0.117578,-0.64401299,-0.105651,-0.27260578,-1.4219254,-0.045304211
21332587556224,0.89528003,0,,-0.00017989109,0.00016920967,-0.0031518202,9.8369684,-0.496961,1.632291,0.74850899,-0.117578,-0.64400601,-0.105663,-0.27249434,-1.4219122,-0.045431498
21332589584640,0.89730845,0,,-0.00017989109,0.00016920967,-0.0031518202,9.8369684,-0.496961,1.632291,0.74850899,-0.117578,-0.64400601,-0.105663,-0.27249434,-1.4219122,-0.045431498
21332591589920,0.89931373,0,,-0.00017989109,0.00016920967,-0.0031518202,9.8369684,-0.496961,1.632291,0.74850899,-0.117578,-0.64400601,-0.105663,-0.27249434,-1.4219122,-0.045431498
21332593533632,0.90125744,0,,-0.0018028728,5.216789e-05,-0.0014998138,9.6300745,-0.52071702,1.6487809,0.74851501,-0.117584,-0.643996,-0.105671,-0.27246911,-1.4218893,-0.045477329
21332595577504,0.90330131,0,,-0.0018028728,5.216789e-05,-0.0014998138,9.6300745,-0.52071702,1.6487809,0.74851501,-0.117584,-0.643996,-0.105671,-0.27246911,-1.4218893,-0.045477329
21332597585888,0.9053097,0,,-0.0032058556,0.0012056559,-6.9690995e-05,9.4824381,-0.47481,1.673449,0.74852502,-0.117594,-0.64398199,-0.105681,-0.27245816,-1.4218576,-0.045517089
21332599638144,0.90736195,0,,-0.0032058556,0.0012056559,-6.9690995e-05,9.4824381,-0.47481,1.673449,0.74852502,-0.117594,-0.64398199,-0.105681,-0.27245816,-1.4218576,-0.045517089
21332601685472,0.90940928,0,,-0.0032058556,0.0012056559,-6.9690995e-05,9.4824381,-0.47481,1.673449,0.74852502,-0.117594,-0.64398199,-0.105681,-0.27245816,-1.4218576,-0.045517089
21332603565504,0.91128931,0,,0.0017076651,0.00022326251,0.0034822985,9.5506001,-0.50656301,1.746973,0.748537,-0.1176,-0.64396602,-0.105682,-0.27248191,-1.421817,-0.045503998
21332605765280,0.91348909,0,,0.0017076651,0.00022326251,0.0034822985,9.5506001,-0.50656301,1.746973,0.748537,-0.1176,-0.64396602,-0.105682,-0.27248191,-1.421817,-0.045503998
21332607574400,0.91529821,0,,0.0022124143,0.0031576846,0.0061308527,9.5838318,-0.500498,1.768306,0.748555,-0.117611,-0.64394498,-0.105672,-0.27263687,-1.4217584,-0.045350479
21332609551648,0.91727546,0,,0.0022124143,0.0031576846,0.0061308527,9.5838318,-0.500498,1.768306,0.748555,-0.117611,-0.64394498,-0.105672,-0.27263687,-1.4217584,-0.045350479
21332611554976,0.91927878,0,,0.0022124143,0.0031576846,0.0061308527,9.5838318,-0.500498,1.768306,0.748555,-0.117611,-0.64394498,-0.105672,-0.27263687,-1.4217584,-0.045350479
21332613571904,0.92129571,0,,-0.00040697588,0.0030748861,0.0044260328,9.6262932,-0.47355601,1.7996531,0.74857402,-0.117624,-0.64392102,-0.105667,-0.27275888,-1.4216941,-0.045241377
21332615549248,0.92327306,0,,-0.00040697588,0.0030748861,0.0044260328,9.6262932,-0.47355601,1.7996531,0.74857402,-0.117624,-0.64392102,-0.105667,-0.27275888,-1.4216941,-0.045241377
21332617547488,0.9252713,0,,0.00054944713,0.0059162821,-1.4346606e-05,9.693099,-0.57484901,1.8346061,0.74859703,-0.117627,-0.64389402,-0.105667,-0.27273529,-1.4216227,-0.045269773
21332619552224,0.92727603,0,,0.00054944713,0.0059162821,-1.4346606e-05,9.693099,-0.57484901,1.8346061,0.74859703,-0.117627,-0.64389402,-0.105667,-0.27273529,-1.4216227,-0.045269773
21332621626240,0.92935005,0,,0.00054944713,0.0059162821,-1.4346606e-05,9.693099,-0.57484901,1.8346061,0.74859703,-0.117627,-0.64389402,-0.105667,-0.27273529,-1.4216227,-0.045269773
21332623563520,0.93128733,0,,0.0045221828,0.0079857538,-0.0041235497,9.6876478,-0.43215001,1.857281,0.74862498,-0.117625,-0.643861,-0.105671,-0.27262687,-1.42154,-0.04538247
21332625740288,0.9334641,0,,0.0045221828,0.0079857538,-0.0041235497,9.6876478,-0.43215001,1.857281,0.74862498,-0.117625,-0.643861,-0.105671,-0.27262687,-1.42154,-0.04538247
21332627539072,0.93526288,0,,0.0021161942,0.0025681122,0.00067264986,9.6624937,-0.39542899,1.837391,0.74865299,-0.117609,-0.64383203,-0.105671,-0.27239517,-1.4214608,-0.045592906
21332629535456,0.93725926,0,,0.0021161942,0.0025681122,0.00067264986,9.6624937,-0.39542899,1.837391,0.74865299,-0.117609,-0.64383203,-0.105671,-0.27239517,-1.4214608,-0.045592906
21332631573568,0.93929738,0,,0.0021161942,0.0025681122,0.00067264986,9.6624937,-0.39542899,1.837391,0.74865299,-0.117609,-0.64383203,-0.105671,-0.27239517,-1.4214608,-0.045592906
21332633566784,0.94129059,0,,0.0027877445,-0.00065030967,-0.00013774138,9.6539564,-0.483814,1.8183169,0.748671,-0.117598,-0.64381301,-0.105662,-0.27232079,-1.4214084,-0.045638962
21332635560032,0.94328384,0,,0.0027877445,-0.00065030967,-0.00013774138,9.6539564,-0.483814,1.8183169,0.748671,-0.117598,-0.64381301,-0.105662,-0.27232079,-1.4214084,-0.045638962
21332637555872,0.94527968,0,,0.006527863,0.0052780852,-0.0056177438,9.8412151,-0.40472299,1.8231601,0.74869001,-0.117588,-0.643794,-0.105664,-0.27216033,-1.4213562,-0.045788956
21332639666336,0.94739014,0,,0.006527863,0.0052780852,-0.0056177438,9.8412151,-0.40472299,1.8231601,0.74869001,-0.117588,-0.643794,-0.105664,-0.27216033,-1.4213562,-0.045788956
21332641534432,0.94925824,0,,0.006527863,0.0052780852,-0.0056177438,9.8412151,-0.40472299,1.8231601,0.74869001,-0.117588,-0.643794,-0.105664,-0.27216033,-1.4213562,-0.045788956
21332643534176,0.95125798,0,,0.0042136961,0.0018778173,9.7476637e-05,9.7462559,-0.35236299,1.777959,0.74871099,-0.117564,-0.64377302,-0.105663,-0.2718809,-1.4213014,-0.046032727
21332645730272,0.95345408,0,,0.0042136961,0.0018778173,9.7476637e-05,9.7462559,-0.35236299,1.777959,0.74871099,-0.117564,-0.64377302,-0.105663,-0.2718809,-1.4213014,-0.046032727
21332647561344,0.95528515,0,,0.0018159103,-0.0019743514,0.00062378066,9.5650768,-0.39372399,1.697,0.74872601,-0.117551,-0.64376003,-0.105655,-0.2717913,-1.4212626,-0.046091616
21332649525536,0.95724934,0,,0.0018159103,-0.0019743514,0.00062378066,9.5650768,-0.39372399,1.697,0.74872601,-0.117551,-0.64376003,-0.105655,-0.2717913,-1.4212626,-0.046091616
21332651532736,0.95925654,0,,0.0018159103,-0.0019743514,0.00062378066,9.5650768,-0.39372399,1.697,0.74872601,-0.117551,-0.64376003,-0.105655,-0.2717913,-1.4212626,-0.046091616
21332653554720,0.96127853,0,,0.0010894171,-0.0036020455,8.4037605e-05,9.6689014,-0.41727,1.660048,0.74873298,-0.117544,-0.64375401,-0.105652,-0.27174012,-1.4212455,-0.046129246
21332655533312,0.96325712,0,,0.0010894171,-0.0036020455,8.4037605e-05,9.6689014,-0.41727,1.660048,0.74873298,-0.117544,-0.64375401,-0.105652,-0.27174012,-1.4212455,-0.046129246
21332657556768,0.96528058,0,,-0.00017414895,0.0019095298,-0.0006185098,9.6514692,-0.302192,1.59391,0.74874002,-0.11754,-0.64374602,-0.105652,-0.271679,-1.4212233,-0.046185655
21332659559584,0.96728339,0,,-0.00017414895,0.0019095298,-0.0006185098,9.6514692,-0.302192,1.59391,0.74874002,-0.11754,-0.64374602,-0.105652,-0.271679,-1.4212233,-0.046185655
21332661549664,0.96927347,0,,-0.00017414895,0.0019095298,-0.0006185098,9.6514692,-0.302192,1.59391,0.74874002,-0.11754,-0.64374602,-0.105652,-0.271679,-1.4212233,-0.046185655
21332663569536,0.97129334,0,,0.001120449,0.0033463896,-0.00034053118,9.5753508,-0.360021,1.514735,0.74875098,-0.117527,-0.64373499,-0.105654,-0.27150674,-1.4211966,-0.046342681
21332665759776,0.97348358,0,,0.001120449,0.0033463896,-0.00034053118,9.5753508,-0.360021,1.514735,0.74875098,-0.117527,-0.64373499,-0.105654,-0.27150674,-1.4211966,-0.046342681
21332667607200,0.97533101,0,,0.0010509151,0.0070342526,-0.0040216924,9.6583099,-0.35016599,1.458096,0.74876398,-0.117516,-0.643722,-0.105659,-0.27132367,-1.4211614,-0.046516969
21332669584192,0.977308,0,,0.0010509151,0.0070342526,-0.0040216924,9.6583099,-0.35016599,1.458096,0.74876398,-0.117516,-0.643722,-0.105659,-0.27132367,-1.4211614,-0.046516969
21332671580608,0.97930442,0,,0.0010509151,0.0070342526,-0.0040216924,9.6583099,-0.35016599,1.458096,0.74876398,-0.117516,-0.643722,-0.105659,-0.27132367,-1.4211614,-0.046516969
21332673653152,0.98137696,0,,0.0068394216,0.0095347159,-0.0013221043,9.7752914,-0.33327499,1.421441,0.74878001,-0.117494,-0.64370602,-0.10566,-0.27105494,-1.4211211,-0.046756429
21332675617600,0.98334141,0,,0.0068394216,0.0095347159,-0.0013221043,9.7752914,-0.33327499,1.421441,0.74878001,-0.117494,-0.64370602,-0.10566,-0.27105494,-1.4211211,-0.046756429
21332677551072,0.98527488,0,,0.00056351448,-0.00021422171,-0.0014278538,9.7474031,-0.31431201,1.338722,0.74878699,-0.11748,-0.64370102,-0.105661,-0.2708962,-1.4211071,-0.046895391
21332679542784,0.98726659,0,,0.00056351448,-0.00021422171,-0.0014278538,9.7474031,-0.31431201,1.338722,0.74878699,-0.11748,-0.64370102,-0.105661,-0.2708962,-1.4211071,-0.046895391
21332681537344,0.98926115,0,,0.00056351448,-0.00021422171,-0.0014278538,9.7474031,-0.31431201,1.338722,0.74878699,-0.11748,-0.64370102,-0.105661,-0.2708962,-1.4211071,-0.046895391
21332683566752,0.99129056,0,,0.00078536328,-0.00067123616,0.0019678413,9.7937288,-0.33587399,1.279004,0.74878103,-0.117474,-0.643709,-0.105661,-0.27084938,-1.4211271,-0.04693248
21332685742400,0.99346621,0,,0.00078536328,-0.00067123616,0.0019678413,9.7937288,-0.33587399,1.279004,0.74878103,-0.117474,-0.643709,-0.105661,-0.27084938,-1.4211271,-0.04693248
21332687576448,0.99530026,0,,0.0034428015,0.0035844,-0.00035246924,9.7677441,-0.407269,1.226805,0.74877697,-0.117467,-0.64371502,-0.105658,-0.27081703,-1.4211407,-0.046950964
21332689593696,0.9973175,0,,0.0034428015,0.0035844,-0.00035246924,9.7677441,-0.407269,1.226805,0.74877697,-0.117467,-0.64371502,-0.105658,-0.27081703,-1.4211407,-0.046950964
21332691538752,0.99926256,0,,0.0034428015,0.0035844,-0.00035246924,9.7677441,-0.407269,1.226805,0.74877697,-0.117467,-0.64371502,-0.105658,-0.27081703,-1.4211407,-0.046950964
21332693531648,1.0012555,0,,0.0097126172,0.0077465739,0.0034810244,9.7657576,-0.35479301,1.181453,0.74877799,-0.117462,-0.64371598,-0.105649,-0.27083876,-1.4211407,-0.046909702
21332695573024,1.0032968,0,,0.0097126172,0.0077465739,0.0034810244,9.7657576,-0.35479301,1.181453,0.74877799,-0.117462,-0.64371598,-0.105649,-0.27083876,-1.4211407,-0.046909702
21332697529536,1.0052533,0,,0.0083658868,0.0070920406,0.0025302561,9.8133898,-0.44192299,1.1121399,0.74878597,-0.117447,-0.643713,-0.105633,-0.27081991,-1.4211267,-0.046883661
21332699544256,1.0072681,0,,0.0083658868,0.0070920406,0.0025302561,9.8133898,-0.44192299,1.1121399,0.74878597,-0.117447,-0.643713,-0.105633,-0.27081991,-1.4211267,-0.046883661
21332701589952,1.0093138,0,,0.0083658868,0.0070920406,0.0025302561,9.8133898,-0.44192299,1.1121399,0.74878597,-0.117447,-0.643713,-0.105633,-0.27081991,-1.4211267,-0.046883661
21332703578304,1.0113021,0,,0.0033210823,0.0016756034,0.0012714899,9.741353,-0.431701,1.05889,0.74878001,-0.117448,-0.64371997,-0.105625,-0.27091534,-1.4211419,-0.046778487
21332705760032,1.0134838,0,,0.0033210823,0.0016756034,0.0012714899,9.741353,-0.431701,1.05889,0.74878001,-0.117448,-0.64371997,-0.105625,-0.27091534,-1.4211419,-0.046778487
21332707550688,1.0152745,0,,0.0042611342,0.0011629129,-0.0014892895,9.7756052,-0.465128,1.030737,0.74877,-0.11745,-0.64373302,-0.105624,-0.27096015,-1.4211742,-0.046734732
21332709577504,1.0173013,0,,0.0042611342,0.0011629129,-0.0014892895,9.7756052,-0.465128,1.030737,0.74877,-0.11745,-0.64373302,-0.105624,-0.27096015,-1.4211742,-0.046734732
21332711531168,1.019255,0,,0.0042611342,0.0011629129,-0.0014892895,9.7756052,-0.465128,1.030737,0.74877,-0.11745,-0.64373302,-0.105624,-0.27096015,-1.4211742,-0.046734732
21332713517536,1.0212413,0,,-0.00042551128,0.0018025586,-0.0016573996,9.6849337,-0.381228,0.98850602,0.748752,-0.11746,-0.64375001,-0.105632,-0.27102774,-1.4212219,-0.046692375
21332715554336,1.0232781,0,,-0.00042551128,0.0018025586,-0.0016573996,9.6849337,-0.381228,0.98850602,0.748752,-0.11746,-0.64375001,-0.105632,-0.27102774,-1.4212219,-0.046692375
21332717579616,1.0253034,0,,0.0047139246,0.0023040265,-0.00064975116,9.6187916,-0.35541999,0.96483701,0.748739,-0.117456,-0.64376402,-0.105638,-0.27097125,-1.4212618,-0.046751855
21332719518432,1.0272422,0,,0.0047139246,0.0023040265,-0.00064975116,9.6187916,-0.35541999,0.96483701,0.748739,-0.117456,-0.64376402,-0.105638,-0.27097125,-1.4212618,-0.046751855
21332721588384,1.0293122,0,,0.0047139246,0.0023040265,-0.00064975116,9.6187916,-0.35541999,0.96483701,0.748739,-0.117456,-0.64376402,-0.105638,-0.27097125,-1.4212618,-0.046751855
21332723564576,1.0312884,0,,0.0039281252,-0.0027503944,0.0024081005,9.6744394,-0.38845101,0.94889802,0.74872202,-0.117455,-0.64378601,-0.105633,-0.27104563,-1.4213166,-0.046667034
21332725713088,1.0334369,0,,0.0039281252,-0.0027503944,0.0024081005,9.6744394,-0.38845101,0.94889802,0.74872202,-0.117455,-0.64378601,-0.105633,-0.27104563,-1.4213166,-0.046667034
21332727549664,1.0352735,0,,-0.00020833995,-0.0021300696,0.0028068209,9.8528137,-0.40744701,0.96814102,0.74869901,-0.117465,-0.64381099,-0.105628,-0.27123974,-1.4213827,-0.046479635
21332729540864,1.0372647,0,,-0.00020833995,-0.0021300696,0.0028068209,9.8528137,-0.40744701,0.96814102,0.74869901,-0.117465,-0.64381099,-0.105628,-0.27123974,-1.4213827,-0.046479635
21332731545088,1.0392689,0,,-0.00020833995,-0.0021300696,0.0028068209,9.8528137,-0.40744701,0.96814102,0.74869901,-0.117465,-0.64381099,-0.105628,-0.27123974,-1.4213827,-0.046479635
21332733543104,1.0412669,0,,0.004707764,0.0025342355,0.0041584389,9.8538294,-0.336151,0.99341899,0.74868202,-0.117476,-0.64383,-0.105622,-0.27143644,-1.4214311,-0.046289065
21332735564544,1.0432884,0,,0.004707764,0.0025342355,0.0041584389,9.8538294,-0.336151,0.99341899,0.74868202,-0.117476,-0.64383,-0.105622,-0.27143644,-1.4214311,-0.046289065
21332737538080,1.0452619,0,,0.0068694415,0.0014639996,0.0049262093,9.7844772,-0.35495999,1.007275,0.74866998,-0.117474,-0.64384699,-0.105608,-0.27157181,-1.421468,-0.046130656
21332739620480,1.0473443,0,,0.0068694415,0.0014639996,0.0049262093,9.7844772,-0.35495999,1.007275,0.74866998,-0.117474,-0.64384699,-0.105608,-0.27157181,-1.421468,-0.046130656
21332741562496,1.0492863,0,,0.0068694415,0.0014639996,0.0049262093,9.7844772,-0.35495999,1.007275,0.74866998,-0.117474,-0.64384699,-0.105608,-0.27157181,-1.421468,-0.046130656
21332743565984,1.0512898,0,,0.0022395715,0.00089397506,-0.00081260782,9.8051252,-0.396512,1.0321341,0.74865699,-0.117471,-0.64386302,-0.105601,-0.27162812,-1.4215104,-0.046059795
21332745630688,1.0533545,0,,0.0022395715,0.00089397506,-0.00081260782,9.8051252,-0.396512,1.0321341,0.74865699,-0.117471,-0.64386302,-0.105601,-0.27162812,-1.4215104,-0.046059795
21332747548800,1.0552726,0,,-0.0020679883,-0.0045559378,-0.0020342336,9.934742,-0.301976,1.117326,0.74863797,-0.117475,-0.643884,-0.105607,-0.27166074,-1.4215657,-0.046041016
21332749538912,1.0572627,0,,-0.0020679883,-0.0045559378,-0.0020342336,9.934742,-0.301976,1.117326,0.74863797,-0.117475,-0.643884,-0.105607,-0.27166074,-1.4215657,-0.046041016
21332751596064,1.0593199,0,,-0.0020679883,-0.0045559378,-0.0020342336,9.934742,-0.301976,1.117326,0.74863797,-0.117475,-0.643884,-0.105607,-0.27166074,-1.4215657,-0.046041016
21332753558912,1.0612827,0,,-0.0012472123,0.00070514791,0.0018211289,9.8093472,-0.29887,1.132755,0.74861997,-0.117477,-0.64390397,-0.105613,-0.2716678,-1.42162,-0.04604526
21332755543104,1.0632669,0,,-0.0012472123,0.00070514791,0.0018211289,9.8093472,-0.29887,1.132755,0.74861997,-0.117477,-0.64390397,-0.105613,-0.2716678,-1.42162,-0.04604526
21332757602464,1.0653263,0,,-0.002966065,0.001442532,-0.0033427941,9.6520195,-0.28415599,1.163021,0.74860799,-0.117476,-0.64391702,-0.10562,-0.27163068,-1.4216568,-0.046089906
21332759570592,1.0672944,0,,-0.002966065,0.001442532,-0.0033427941,9.6520195,-0.28415599,1.163021,0.74860799,-0.117476,-0.64391702,-0.10562,-0.27163068,-1.4216568,-0.046089906
21332761527200,1.069251,0,,-0.002966065,0.001442532,-0.0033427941,9.6520195,-0.28415599,1.163021,0.74860799,-0.117476,-0.64391702,-0.10562,-0.27163068,-1.4216568,-0.046089906
21332763527616,1.0712514,0,,-0.0035569286,0.00073085664,0.00086695737,9.6501045,-0.30346,1.217851,0.74859798,-0.117475,-0.64392602,-0.105632,-0.27153439,-1.4216865,-0.046202233
21332765727584,1.0734514,0,,-0.0035569286,0.00073085664,0.00086695737,9.6501045,-0.30346,1.217851,0.74859798,-0.117475,-0.64392602,-0.105632,-0.27153439,-1.4216865,-0.046202233
21332767567936,1.0752917,0,,0.0014460402,-0.0001354201,-0.00072206015,9.6947689,-0.25518098,1.263714,0.74858898,-0.117473,-0.64393598,-0.105633,-0.27152076,-1.421713,-0.046214434
21332769539168,1.077263,0,,0.0014460402,-0.0001354201,-0.00072206015,9.6947689,-0.25518098,1.263714,0.74858898,-0.117473,-0.64393598,-0.105633,-0.27152076,-1.421713,-0.046214434
21332771565056,1.0792889,0,,0.0014460402,-0.0001354201,-0.00072206015,9.6947689,-0.25518098,1.263714,0.74858898,-0.117473,-0.64393598,-0.105633,-0.27152076,-1.421713,-0.046214434
21332773566656,1.0812905,0,,0.0036728534,0.00075225439,0.0014236476,9.7091455,-0.28987899,1.3505599,0.74858397,-0.117459,-0.64394599,-0.105631,-0.2714229,-1.4217367,-0.046288174
21332775517440,1.0832412,0,,0.0036728534,0.00075225439,0.0014236476,9.7091455,-0.28987899,1.3505599,0.74858397,-0.117459,-0.64394599,-0.105631,-0.2714229,-1.4217367,-0.046288174
21332777519360,1.0852432,0,,0.0037116869,-0.0012616112,0.002435415,9.5809574,-0.29310501,1.368908,0.74858302,-0.117446,-0.643951,-0.105619,-0.27139269,-1.4217439,-0.04628271
21332779544672,1.0872685,0,,0.0037116869,-0.0012616112,0.002435415,9.5809574,-0.29310501,1.368908,0.74858302,-0.117446,-0.643951,-0.105619,-0.27139269,-1.4217439,-0.04628271
21332781545088,1.0892689,0,,0.0037116869,-0.0012616112,0.002435415,9.5809574,-0.29310501,1.368908,0.74858302,-0.117446,-0.643951,-0.105619,-0.27139269,-1.4217439,-0.04628271
21332783552288,1.0912761,0,,-0.0010986324,0.0016546594,0.0016681159,9.7021875,-0.457358,1.423476,0.74858099,-0.117442,-0.64395499,-0.105613,-0.27140631,-1.4217519,-0.04625461
21332785753504,1.0934773,0,,-0.0010986324,0.0016546594,0.0016681159,9.7021875,-0.457358,1.423476,0.74858099,-0.117442,-0.64395499,-0.105613,-0.27140631,-1.4217519,-0.04625461
21332787589248,1.0953131,0,,-0.00045614179,0.002501877,-0.0032869611,9.8732319,-0.28012601,1.5250599,0.74858397,-0.117445,-0.64394999,-0.105623,-0.27135176,-1.4217415,-0.046327372
21332789552448,1.0972763,0,,-0.00045614179,0.002501877,-0.0032869611,9.8732319,-0.28012601,1.5250599,0.74858397,-0.117445,-0.64394999,-0.105623,-0.27135176,-1.4217415,-0.046327372
21332791545344,1.0992692,0,,-0.00045614179,0.002501877,-0.0032869611,9.8732319,-0.28012601,1.5250599,0.74858397,-0.117445,-0.64394999,-0.105623,-0.27135176,-1.4217415,-0.046327372
21332793574784,1.1012986,0,,-0.00040036108,0.0023318472,-7.9779002e-05,9.69419,-0.358105,1.535497,0.74858999,-0.117431,-0.64394403,-0.105627,-0.27115948,-1.4217287,-0.046506183
21332795541696,1.1032655,0,,-0.00040036108,0.0023318472,-7.9779002e-05,9.69419,-0.358105,1.535497,0.74858999,-0.117431,-0.64394403,-0.105627,-0.27115948,-1.4217287,-0.046506183
21332797588448,1.1053123,0,,0.002731737,-0.00088797118,0.0024863787,9.6529932,-0.46295699,1.568203,0.74859798,-0.117426,-0.64393699,-0.105622,-0.27112894,-1.4217078,-0.046522312
21332799582400,1.1073062,0,,0.002731737,-0.00088797118,0.0024863787,9.6529932,-0.46295699,1.568203,0.74859798,-0.117426,-0.64393699,-0.105622,-0.27112894,-1.4217078,-0.046522312
21332801599136,1.1093229,0,,0.002731737,-0.00088797118,0.0024863787,9.6529932,-0.46295699,1.568203,0.74859798,-0.117426,-0.64393699,-0.105622,-0.27112894,-1.4217078,-0.046522312
21332803537312,1.1112611,0,,0.0039107592,-0.0028240823,-0.00037636279,9.8051033,-0.41001201,1.667156,0.74860102,-0.117424,-0.64393502,-0.105618,-0.271144,-1.4217002,-0.04649831
21332805738496,1.1134623,0,,0.0039107592,-0.0028240823,-0.00037636279,9.8051033,-0.41001201,1.667156,0.74860102,-0.117424,-0.64393502,-0.105618,-0.271144,-1.4217002,-0.04649831
21332807567264,1.1152911,0,,0.0012886639,-0.0011867017,0.0017177007,9.7040262,-0.38488901,1.683026,0.74860698,-0.11742,-0.643929,-0.105613,-0.27113195,-1.4216845,-0.046498976
21332809523264,1.1172471,0,,0.0012886639,-0.0011867017,0.0017177007,9.7040262,-0.38488901,1.683026,0.74860698,-0.11742,-0.643929,-0.105613,-0.27113195,-1.4216845,-0.046498976
21332811523456,1.1192473,0,,0.0012886639,-0.0011867017,0.0017177007,9.7040262,-0.38488901,1.683026,0.74860698,-0.11742,-0.643929,-0.105613,-0.27113195,-1.4216845,-0.046498976
21332813556384,1.1212802,0,,-0.0055785433,-0.001874344,0.00022612486,9.6119785,-0.57855397,1.655273,0.74861401,-0.117421,-0.64392,-0.105617,-0.27109853,-1.4216609,-0.04653889
21332815567584,1.1232914,0,,-0.0055785433,-0.001874344,0.00022612486,9.6119785,-0.57855397,1.655273,0.74861401,-0.117421,-0.64392,-0.105617,-0.27109853,-1.4216609,-0.04653889
21332817534112,1.1252579,0,,-0.0028419195,0.0020864888,-0.0019919792,9.7065401,-0.47127199,1.72127,0.74862099,-0.117443,-0.64390701,-0.105629,-0.27118983,-1.4216315,-0.046495797
21332819531648,1.1272555,0,,-0.0028419195,0.0020864888,-0.0019919792,9.7065401,-0.47127199,1.72127,0.74862099,-0.117443,-0.64390701,-0.105629,-0.27118983,-1.4216315,-0.046495797
21332821630144,1.129354,0,,-0.0028419195,0.0020864888,-0.0019919792,9.7065401,-0.47127199,1.72127,0.74862099,-0.117443,-0.64390701,-0.105629,-0.27118983,-1.4216315,-0.046495797
21332823524672,1.1312485,0,,0.0010291683,0.00070354221,-0.0032296969,9.6309309,-0.49545899,1.7459069,0.74863499,-0.117441,-0.64388901,-0.105637,-0.2710679,-1.4215874,-0.046627885
21332825714016,1.1334378,0,,0.0010291683,0.00070354221,-0.0032296969,9.6309309,-0.49545899,1.7459069,0.74863499,-0.117441,-0.64388901,-0.105637,-0.2710679,-1.4215874,-0.046627885
21332827552032,1.1352758,0,,0.0043479119,-0.0015383681,-0.00044799113,9.5663967,-0.57104599,1.7134711,0.74864602,-0.117438,-0.64387697,-0.105638,-0.27100415,-1.4215557,-0.046688239
21332829548320,1.1372721,0,,0.0043479119,-0.0015383681,-0.00044799113,9.5663967,-0.57104599,1.7134711,0.74864602,-0.117438,-0.64387697,-0.105638,-0.27100415,-1.4215557,-0.046688239
21332831514656,1.1392385,0,,0.0043479119,-0.0015383681,-0.00044799113,9.5663967,-0.57104599,1.7134711,0.74864602,-0.117438,-0.64387697,-0.105638,-0.27100415,-1.4215557,-0.046688239
21332833509728,1.1412335,0,,0.0015500793,0.00079997165,-0.0019682078,9.6290598,-0.48383099,1.740719,0.748658,-0.11744,-0.64386201,-0.105636,-0.27100845,-1.4215174,-0.046685934
21332835557024,1.1432808,0,,0.0015500793,0.00079997165,-0.0019682078,9.6290598,-0.48383099,1.740719,0.748658,-0.11744,-0.64386201,-0.105636,-0.27100845,-1.4215174,-0.046685934
21332837581696,1.1453055,0,,-0.0020096419,0.00040238566,0.00038463566,9.6319637,-0.475151,1.746996,0.74866998,-0.117444,-0.64384699,-0.105643,-0.2709606,-1.4214801,-0.046748468
21332839590240,1.147314,0,,-0.0020096419,0.00040238566,0.00038463566,9.6319637,-0.475151,1.746996,0.74866998,-0.117444,-0.64384699,-0.105643,-0.2709606,-1.4214801,-0.046748468
21332841556352,1.1492802,0,,-0.0020096419,0.00040238566,0.00038463566,9.6319637,-0.475151,1.746996,0.74866998,-0.117444,-0.64384699,-0.105643,-0.2709606,-1.4214801,-0.046748468
21332843543968,1.1512678,0,,-0.0017198649,6.2535148e-05,-0.00035676274,9.6416225,-0.53144401,1.713612,0.74868298,-0.11745,-0.64383,-0.105648,-0.27094428,-1.4214376,-0.046782153
21332845601760,1.1533256,0,,-0.0017198649,6.2535148e-05,-0.00035676274,9.6416225,-0.53144401,1.713612,0.74868298,-0.11745,-0.64383,-0.105648,-0.27094428,-1.4214376,-0.046782153
21332847546048,1.1552699,0,,0.00017832029,-0.00049138001,-0.0036411233,9.730545,-0.452526,1.7379791,0.748694,-0.117454,-0.64381498,-0.105653,-0.2709196,-1.4214014,-0.046820253
21332849558240,1.157282,0,,0.00017832029,-0.00049138001,-0.0036411233,9.730545,-0.452526,1.7379791,0.748694,-0.117454,-0.64381498,-0.105653,-0.2709196,-1.4214014,-0.046820253
21332851576704,1.1593005,0,,0.00017832029,-0.00049138001,-0.0036411233,9.730545,-0.452526,1.7379791,0.748694,-0.117454,-0.64381498,-0.105653,-0.2709196,-1.4214014,-0.046820253
21332853537280,1.1612611,0,,0.0014382734,-0.0023305383,-0.0035012527,9.7505856,-0.52386999,1.718997,0.748703,-0.117447,-0.64380503,-0.105659,-0.27077509,-1.4213762,-0.046963302
21332855552864,1.1632767,0,,0.0014382734,-0.0023305383,-0.0035012527,9.7505856,-0.52386999,1.718997,0.748703,-0.117447,-0.64380503,-0.105659,-0.27077509,-1.4213762,-0.046963302
21332857570080,1.1652939,0,,0.0046036198,0.00091437803,-0.003883951,9.697422,-0.46889201,1.640807,0.748712,-0.117441,-0.64379501,-0.105661,-0.27067695,-1.4213494,-0.047056816
21332859543232,1.167267,0,,0.0046036198,0.00091437803,-0.003883951,9.697422,-0.46889201,1.640807,0.748712,-0.117441,-0.64379501,-0.105661,-0.27067695,-1.4213494,-0.047056816
21332861532288,1.1692561,0,,0.0046036198,0.00091437803,-0.003883951,9.697422,-0.46889201,1.640807,0.748712,-0.117441,-0.64379501,-0.105661,-0.27067695,-1.4213494,-0.047056816
21332863568256,1.1712921,0,,0.0023642754,0.0046960003,-0.0056830188,9.8087864,-0.42376301,1.632809,0.74872601,-0.117428,-0.64377999,-0.105667,-0.27046147,-1.4213118,-0.047261368
21332865747008,1.1734708,0,,0.0023642754,0.0046960003,-0.0056830188,9.8087864,-0.42376301,1.632809,0.74872601,-0.117428,-0.64377999,-0.105667,-0.27046147,-1.4213118,-0.047261368
21332867531904,1.1752557,0,,0.0023642754,0.0046960003,-0.0056830188,9.8087864,-0.42376301,1.632809,0.74872601,-0.117428,-0.64377999,-0.105667,-0.27046147,-1.4213118,-0.047261368
21332869558784,1.1772826,0,,0.0023642754,0.0046960003,-0.0056830188,9.8087864,-0.42376301,1.632809,0.74872601,-0.117428,-0.64377999,-0.105667,-0.27046147,-1.4213118,-0.047261368
21332871567296,1.1792911,0,,0.0023642754,0.0046960003,-0.0056830188,9.8087864,-0.42376301,1.632809,0.74872601,-0.117428,-0.64377999,-0.105667,-0.27046147,-1.4213118,-0.047261368
21332873616000,1.1813398,0,,0.007305983,0.0048367609,-0.0069593606,9.6458902,-0.37640899,1.492483,0.74874401,-0.117408,-0.64376003,-0.105683,-0.27008064,-1.4212646,-0.047636562
21332875541312,1.1832651,0,,0.007305983,0.0048367609,-0.0069593606,9.6458902,-0.37640899,1.492483,0.74874401,-0.117408,-0.64376003,-0.105683,-0.27008064,-1.4212646,-0.047636562
21332877619328,1.1853431,0,,0.0085375571,0.00057499872,-0.0048442312,9.6778135,-0.33730099,1.468504,0.748752,-0.117377,-0.64375699,-0.105683,-0.26975976,-1.4212542,-0.047914454
21332879526176,1.18725,0,,0.0085375571,0.00057499872,-0.0048442312,9.6778135,-0.33730099,1.468504,0.748752,-0.117377,-0.64375699,-0.105683,-0.26975976,-1.4212542,-0.047914454
21332881532544,1.1892564,0,,0.0085375571,0.00057499872,-0.0048442312,9.6778135,-0.33730099,1.468504,0.748752,-0.117377,-0.64375699,-0.105683,-0.26975976,-1.4212542,-0.047914454
21332883579168,1.191303,0,,0.0012738111,-0.00058826322,-0.0032866469,9.5950327,-0.348647,1.367826,0.74875301,-0.117358,-0.64375901,-0.105685,-0.26955248,-1.4212589,-0.048097313
21332885722816,1.1934466,0,,0.0012738111,-0.00058826322,-0.0032866469,9.5950327,-0.348647,1.367826,0.74875301,-0.117358,-0.64375901,-0.105685,-0.26955248,-1.4212589,-0.048097313
21332887522752,1.1952466,0,,-0.0038302124,-0.0001121374,0.00072113513,9.7185688,-0.31445599,1.348208,0.74875098,-0.117354,-0.64376098,-0.105692,-0.26945018,-1.4212662,-0.048203707
21332889522688,1.1972465,0,,-0.0038302124,-0.0001121374,0.00072113513,9.7185688,-0.31445599,1.348208,0.74875098,-0.117354,-0.64376098,-0.105692,-0.26945018,-1.4212662,-0.048203707
21332891551168,1.199275,0,,-0.0038302124,-0.0001121374,0.00072113513,9.7185688,-0.31445599,1.348208,0.74875098,-0.117354,-0.64376098,-0.105692,-0.26945018,-1.4212662,-0.048203707
21332893545888,1.2012697,0,,-0.0058764189,0.0054365786,-0.0004516912,9.7587452,-0.30661401,1.307376,0.74874997,-0.117359,-0.64375901,-0.105703,-0.2694131,-1.4212654,-0.048263153
21332895545760,1.2032696,0,,-0.0058764189,0.0054365786,-0.0004516912,9.7587452,-0.30661401,1.307376,0.74874997,-0.117359,-0.64375901,-0.105703,-0.2694131,-1.4212654,-0.048263153
21332897543040,1.2052668,0,,-0.0038439479,0.0018917973,-0.0033217106,9.7262573,-0.33823001,1.239985,0.74874902,-0.11736,-0.64375699,-0.105717,-0.26929231,-1.4212658,-0.048405329
21332899543168,1.207267,0,,-0.0038439479,0.0018917973,-0.0033217106,9.7262573,-0.33823001,1.239985,0.74874902,-0.11736,-0.64375699,-0.105717,-0.26929231,-1.4212658,-0.048405329
21332901510496,1.2092343,0,,-0.0038439479,0.0018917973,-0.0033217106,9.7262573,-0.33823001,1.239985,0.74874902,-0.11736,-0.64375699,-0.105717,-0.26929231,-1.4212658,-0.048405329
21332903560896,1.2112847,0,,-0.00088214175,0.0028675759,-0.0042381306,9.799942,-0.285575,1.203287,0.748743,-0.117357,-0.64376199,-0.105734,-0.26912112,-1.4212838,-0.048596756
21332905755968,1.2134798,0,,-0.00088214175,0.0028675759,-0.0042381306,9.799942,-0.285575,1.203287,0.748743,-0.117357,-0.64376199,-0.105734,-0.26912112,-1.4212838,-0.048596756
21332907545472,1.2152693,0,,0.0032692112,0.0013566444,-0.0044986908,9.8006287,-0.33169201,1.1521291,0.74873799,-0.11734,-0.64376998,-0.105742,-0.26890082,-1.4213074,-0.048803788
21332909544320,1.2172681,0,,0.0032692112,0.0013566444,-0.0044986908,9.8006287,-0.33169201,1.1521291,0.74873799,-0.11734,-0.64376998,-0.105742,-0.26890082,-1.4213074,-0.048803788
21332911532608,1.2192564,0,,0.0032692112,0.0013566444,-0.0044986908,9.8006287,-0.33169201,1.1521291,0.74873799,-0.11734,-0.64376998,-0.105742,-0.26890082,-1.4213074,-0.048803788
21332913582048,1.2213059,0,,0.003093439,-0.00095733054,-0.0065849352,9.7771893,-0.28014299,1.113079,0.74872297,-0.117325,-0.64378798,-0.105751,-0.2686925,-1.4213578,-0.049002876
21332915555264,1.2232791,0,,0.003093439,-0.00095733054,-0.0065849352,9.7771893,-0.28014299,1.113079,0.74872297,-0.117325,-0.64378798,-0.105751,-0.2686925,-1.4213578,-0.049002876
21332917563424,1.2252872,0,,0.0035814679,0.0034811289,-0.0027658233,9.7853794,-0.31255001,1.077199,0.74871397,-0.117306,-0.64380097,-0.105761,-0.26844883,-1.4213943,-0.049233921
21332919569440,1.2272932,0,,0.0035814679,0.0034811289,-0.0027658233,9.7853794,-0.31255001,1.077199,0.74871397,-0.117306,-0.64380097,-0.105761,-0.26844883,-1.4213943,-0.049233921
21332921577056,1.2293009,0,,0.0035814679,0.0034811289,-0.0027658233,9.7853794,-0.31255001,1.077199,0.74871397,-0.117306,-0.64380097,-0.105761,-0.26844883,-1.4213943,-0.049233921
21332923528032,1.2312518,0,,-0.0052589739,-0.0025682171,-0.0012862379,9.7082329,-0.35704401,1.007887,0.748698,-0.117305,-0.64381802,-0.105771,-0.26837828,-1.4214403,-0.04931571
21332925731040,1.2334548,0,,-0.0052589739,-0.0025682171,-0.0012862379,9.7082329,-0.35704401,1.007887,0.748698,-0.117305,-0.64381802,-0.105771,-0.26837828,-1.4214403,-0.04931571
21332927562528,1.2352863,0,,-0.0013772393,-0.00074508108,-0.0016595986,9.7624006,-0.312305,1.01486,0.74867898,-0.11731,-0.64383799,-0.105781,-0.26838142,-1.4214965,-0.049333632
21332929517504,1.2372413,0,,-0.0013772393,-0.00074508108,-0.0016595986,9.7624006,-0.312305,1.01486,0.74867898,-0.11731,-0.64383799,-0.105781,-0.26838142,-1.4214965,-0.049333632
21332931530688,1.2392545,0,,-0.0013772393,-0.00074508108,-0.0016595986,9.7624006,-0.312305,1.01486,0.74867898,-0.11731,-0.64383799,-0.105781,-0.26838142,-1.4214965,-0.049333632
21332933565856,1.2412897,0,,-0.0022419801,-0.0061329297,0.00029351202,9.7039328,-0.33160499,0.99491298,0.74865502,-0.117314,-0.64386398,-0.105788,-0.26841648,-1.4215662,-0.049315131
21332935539296,1.2432631,0,,-0.0022419801,-0.0061329297,0.00029351202,9.7039328,-0.33160499,0.99491298,0.74865502,-0.117314,-0.64386398,-0.105788,-0.26841648,-1.4215662,-0.049315131
21332937515552,1.2452394,0,,0.0017347002,0.0013169382,-0.0036123255,9.7076025,-0.39304501,0.97203898,0.74863303,-0.117315,-0.64388901,-0.105792,-0.26844026,-1.4216348,-0.049295549
21332939668864,1.2473927,0,,0.0017347002,0.0013169382,-0.0036123255,9.7076025,-0.39304501,0.97203898,0.74863303,-0.117315,-0.64388901,-0.105792,-0.26844026,-1.4216348,-0.049295549
21332941574624,1.2492984,0,,0.0017347002,0.0013169382,-0.0036123255,9.7076025,-0.39304501,0.97203898,0.74863303,-0.117315,-0.64388901,-0.105792,-0.26844026,-1.4216348,-0.049295549
21332943556704,1.2512805,0,,0.0024596053,0.00040758673,-0.0028900559,9.7336512,-0.36683899,0.981453,0.74861699,-0.117313,-0.64390701,-0.1058,-0.26837675,-1.4216845,-0.049367999
21332945710784,1.2534346,0,,0.0024596053,0.00040758673,-0.0028900559,9.7336512,-0.36683899,0.981453,0.74861699,-0.117313,-0.64390701,-0.1058,-0.26837675,-1.4216845,-0.049367999
21332947575264,1.2552991,0,,8.4543751e-05,0.0028203823,0.00094808028,9.7324638,-0.38983899,0.98806602,0.74860001,-0.117315,-0.64392501,-0.105803,-0.26841748,-1.4217335,-0.049333757
21332949538912,1.2572627,0,,8.4543751e-05,0.0028203823,0.00094808028,9.7324638,-0.38983899,0.98806602,0.74860001,-0.117315,-0.64392501,-0.105803,-0.26841748,-1.4217335,-0.049333757
21332951567904,1.2592917,0,,8.4543751e-05,0.0028203823,0.00094808028,9.7324638,-0.38983899,0.98806602,0.74860001,-0.117315,-0.64392501,-0.105803,-0.26841748,-1.4217335,-0.049333757
21332953566944,1.2612908,0,,-0.0026358835,0.00037311648,-0.0011576769,9.7895021,-0.39863101,1.005172,0.74858499,-0.117323,-0.64393902,-0.105811,-0.26846005,-1.421774,-0.049314262
21332955546944,1.2632708,0,,-0.0026358835,0.00037311648,-0.0011576769,9.7895021,-0.39863101,1.005172,0.74858499,-0.117323,-0.64393902,-0.105811,-0.26846005,-1.421774,-0.049314262
21332957553920,1.2652777,0,,4.0997783e-05,0.0020248088,0.001943878,9.7831659,-0.381421,1.03246,0.74856901,-0.117332,-0.64395601,-0.105815,-0.26854641,-1.4218206,-0.049245319
21332959541024,1.2672648,0,,4.0997783e-05,0.0020248088,0.001943878,9.7831659,-0.381421,1.03246,0.74856901,-0.117332,-0.64395601,-0.105815,-0.26854641,-1.4218206,-0.049245319
21332961531584,1.2692554,0,,4.0997783e-05,0.0020248088,0.001943878,9.7831659,-0.381421,1.03246,0.74856901,-0.117332,-0.64395601,-0.105815,-0.26854641,-1.4218206,-0.049245319
21332963557760,1.2712816,0,,-0.0016361239,0.00073017596,0.00020947441,9.772213,-0.33058,1.059141,0.748555,-0.117342,-0.64397001,-0.105817,-0.26865838,-1.4218592,-0.049150427
21332965693696,1.2734175,0,,-0.0016361239,0.00073017596,0.00020947441,9.772213,-0.33058,1.059141,0.748555,-0.117342,-0.64397001,-0.105817,-0.26865838,-1.4218592,-0.049150427
21332967533344,1.2752572,0,,-0.00019315559,0.0010898534,0.00011215486,9.7961559,-0.40892801,1.10052,0.74853897,-0.117345,-0.643987,-0.10582,-0.26869772,-1.4219054,-0.049120109
21332969565600,1.2772894,0,,-0.00019315559,0.0010898534,0.00011215486,9.7961559,-0.40892801,1.10052,0.74853897,-0.117345,-0.643987,-0.10582,-0.26869772,-1.4219054,-0.049120109
21332971525248,1.2792491,0,,-0.00019315559,0.0010898534,0.00011215486,9.7961559,-0.40892801,1.10052,0.74853897,-0.117345,-0.643987,-0.10582,-0.26869772,-1.4219054,-0.049120109
21332973527136,1.2812509,0,,-0.0061765983,-0.00034543556,-0.00089634876,9.7377748,-0.31205299,1.158806,0.74852598,-0.117358,-0.64399898,-0.105829,-0.2687781,-1.4219403,-0.049070541
21332975558272,1.2832821,0,,-0.0061765983,-0.00034543556,-0.00089634876,9.7377748,-0.31205299,1.158806,0.74852598,-0.117358,-0.64399898,-0.105829,-0.2687781,-1.4219403,-0.049070541
21332977523072,1.2852469,0,,-0.0037662461,0.00026190411,-0.00039561378,9.8075504,-0.44889998,1.1810499,0.74851298,-0.117364,-0.64401001,-0.105842,-0.26875154,-1.421974,-0.04912266
21332979585664,1.2873095,0,,-0.0037662461,0.00026190411,-0.00039561378,9.8075504,-0.44889998,1.1810499,0.74851298,-0.117364,-0.64401001,-0.105842,-0.26875154,-1.421974,-0.04912266
21332981520864,1.2892447,0,,-0.0037662461,0.00026190411,-0.00039561378,9.8075504,-0.44889998,1.1810499,0.74851298,-0.117364,-0.64401001,-0.105842,-0.26875154,-1.421974,-0.04912266
21332983529120,1.2912529,0,,0.00054965655,0.00039191367,-0.0033344514,9.8063688,-0.382981,1.275385,0.748501,-0.117373,-0.64402097,-0.105851,-0.26878564,-1.4220066,-0.049115644
21332985733728,1.2934575,0,,0.00054965655,0.00039191367,-0.0033344514,9.8063688,-0.382981,1.275385,0.748501,-0.117373,-0.64402097,-0.105851,-0.26878564,-1.4220066,-0.049115644
21332987519808,1.2952436,0,,0.0028725152,-0.0045493579,-0.0027752479,9.6799135,-0.33614799,1.308497,0.748492,-0.117367,-0.644032,-0.105856,-0.26870956,-1.4220372,-0.04918938
21332989568928,1.2972927,0,,0.0028725152,-0.0045493579,-0.0027752479,9.6799135,-0.33614799,1.308497,0.748492,-0.117367,-0.644032,-0.105856,-0.26870956,-1.4220372,-0.04918938
21332991552128,1.2992759,0,,0.0028725152,-0.0045493579,-0.0027752479,9.6799135,-0.33614799,1.308497,0.748492,-0.117367,-0.644032,-0.105856,-0.26870956,-1.4220372,-0.04918938
21332993514016,1.3012378,0,,-0.00089868748,-0.0062671457,-0.00098056089,9.5346403,-0.34920299,1.293776,0.74847698,-0.11736,-0.64405102,-0.105857,-0.26865565,-1.422085,-0.049234829
21332995555616,1.3032794,0,,-0.00089868748,-0.0062671457,-0.00098056089,9.5346403,-0.34920299,1.293776,0.74847698,-0.11736,-0.64405102,-0.105857,-0.26865565,-1.422085,-0.049234829
21332997590304,1.3053141,0,,-0.0052365289,-0.0033030355,0.00057176989,9.6747465,-0.29782501,1.4140821,0.74846399,-0.117368,-0.644063,-0.105864,-0.26870878,-1.4221216,-0.049202072
21332999565152,1.307289,0,,-0.0052365289,-0.0033030355,0.00057176989,9.6747465,-0.29782501,1.4140821,0.74846399,-0.117368,-0.644063,-0.105864,-0.26870878,-1.4221216,-0.049202072
21333001560032,1.3092838,0,,-0.0052365289,-0.0033030355,0.00057176989,9.6747465,-0.29782501,1.4140821,0.74846399,-0.117368,-0.644063,-0.105864,-0.26870878,-1.4221216,-0.049202072
21333003564768,1.3112886,0,,-0.0014859908,-0.0016099267,0.0069754701,9.6454725,-0.38789999,1.4639421,0.74845999,-0.117372,-0.644068,-0.105864,-0.26875628,-1.4221337,-0.049159503
21333005632768,1.3133566,0,,-0.0014859908,-0.0016099267,0.0069754701,9.6454725,-0.38789999,1.4639421,0.74845999,-0.117372,-0.644068,-0.105864,-0.26875628,-1.4221337,-0.049159503
21333007568512,1.3152923,0,,-0.00089427181,-0.0019981925,0.0073590584,9.6091471,-0.40266201,1.50331,0.74845999,-0.117388,-0.64406598,-0.105853,-0.2690085,-1.4221262,-0.048914213
21333009563648,1.3172875,0,,-0.00089427181,-0.0019981925,0.0073590584,9.6091471,-0.40266201,1.50331,0.74845999,-0.117388,-0.64406598,-0.105853,-0.2690085,-1.4221262,-0.048914213
21333011561984,1.3192858,0,,-0.00089427181,-0.0019981925,0.0073590584,9.6091471,-0.40266201,1.50331,0.74845999,-0.117388,-0.64406598,-0.105853,-0.2690085,-1.4221262,-0.048914213
21333013510336,1.3212341,0,,-0.00062639864,-0.0002003638,0.0023874358,9.7432241,-0.37187901,1.5834579,0.74846202,-0.117397,-0.64406198,-0.105849,-0.26912911,-1.4221151,-0.048801133
21333015534432,1.3232582,0,,-0.00062639864,-0.0002003638,0.0023874358,9.7432241,-0.37187901,1.5834579,0.74846202,-0.117397,-0.64406198,-0.105849,-0.26912911,-1.4221151,-0.048801133
21333017528320,1.3252521,0,,-0.0014893243,-0.0044551273,0.0042072733,9.7549458,-0.41529,1.628243,0.748465,-0.117405,-0.644059,-0.105845,-0.26924347,-1.4221055,-0.048692347
21333019532288,1.3272561,0,,-0.0014893243,-0.0044551273,0.0042072733,9.7549458,-0.41529,1.628243,0.748465,-0.117405,-0.644059,-0.105845,-0.26924347,-1.4221055,-0.048692347
21333021574624,1.3292984,0,,-0.0014893243,-0.0044551273,0.0042072733,9.7549458,-0.41529,1.628243,0.748465,-0.117405,-0.644059,-0.105845,-0.26924347,-1.4221055,-0.048692347
21333023542048,1.3312659,0,,0.0025432939,0.0006389127,0.0014062117,9.780117,-0.40193298,1.682871,0.748469,-0.11741,-0.644054,-0.105843,-0.26930035,-1.4220914,-0.048639937
21333025603648,1.3333275,0,,0.0025432939,0.0006389127,0.0014062117,9.780117,-0.40193298,1.682871,0.748469,-0.11741,-0.644054,-0.105843,-0.26930035,-1.4220914,-0.048639937
21333027525280,1.3352491,0,,0.0055663437,0.0054370847,-0.0013041623,9.721777,-0.394115,1.728875,0.74848497,-0.117396,-0.64403802,-0.105838,-0.26916646,-1.4220472,-0.048748423
21333029540064,1.3372639,0,,0.0055663437,0.0054370847,-0.0013041623,9.721777,-0.394115,1.728875,0.74848497,-0.117396,-0.64403802,-0.105838,-0.26916646,-1.4220472,-0.048748423
21333031556288,1.3392801,0,,0.0055663437,0.0054370847,-0.0013041623,9.721777,-0.394115,1.728875,0.74848497,-0.117396,-0.64403802,-0.105838,-0.26916646,-1.4220472,-0.048748423
